Time (s),Acceleration x (m/s^2),Acceleration y (m/s^2),Acceleration z (m/s^2),Absolute acceleration (m/s^2),magnitude
6.450346358,4.031607151,8.546863556,-2.619243383,9.806282107,9.806282107111981
6.452852348,4.548755646,8.298009872,-2.753241539,9.855378468,9.855378467359913
6.455358338,4.836193562,8.051250458,-3.253640652,9.939697158,9.93969715831033
6.457864327,4.979763031,7.967501163,-3.813860178,10.14024872,10.140248719072666
6.460370317,4.998905659,8.058428764,-4.366901398,10.44017048,10.44017048481006
6.462876306,4.886443138,8.262117386,-4.754538536,10.71193479,10.711934789348737
6.465382296,4.692325115,8.58754158,-4.845765114,10.9199462,10.919946195524412
6.467888285,4.479363918,8.956335068,-4.548755646,10.99871887,10.998718874813727
6.470394275,4.244867325,9.221938133,-3.868895054,10.86422526,10.864225258829912
6.472900265,4.041178226,9.468698502,-2.956631422,10.71116437,10.711164369088511
6.475406254,3.835395575,9.657731056,-1.999203324,10.58200559,10.582005589558584
6.477912244,3.670290947,9.847063065,-1.156331539,10.5722651,10.572265096458917
6.480418233,3.636492252,10.01934624,-0.7061817646,10.6822314,10.682231398940568
6.482924171,3.672683716,10.12941647,-0.7444669604,10.80036641,10.800366417654823
6.485430108,3.80907464,10.0767746,-1.230509043,10.84272053,10.842720528409881
6.48793615,3.957429647,9.851848602,-2.003988981,10.80445011,10.804450107416542
6.49044214,4.206283092,9.633803368,-3.047558784,10.94488919,10.9448891874367
6.492948129,4.673182487,9.473484039,-4.167997837,11.35595616,11.355956162438634
6.495454119,5.283651352,9.411270142,-5.027619362,11.90655003,11.906550035352366
6.497960108,5.906383514,9.416056633,-5.422734261,12.36743852,12.367438522011641
6.500466098,6.610172749,9.475876808,-5.144867897,12.64738276,12.647382762041945
6.502972088,7.251748085,9.363413811,-4.692325115,12.73888863,12.738888627709501
6.505478077,7.685148239,9.317950249,-4.299902439,12.820876,12.820875995155797
6.507984067,8.005785942,9.411270142,-3.768396616,12.91764016,12.91764015949917
6.510490056,8.30279541,9.605089188,-3.397209883,13.14287582,13.14287582376492
6.512996046,8.522934914,9.856635094,-3.157927752,13.40769117,13.407691173777996
6.515502035,8.625826836,10.11745262,-3.030808926,13.63647824,13.636478242879424
6.518008025,8.534899712,10.28255749,-3.076272726,13.71272969,13.71272968864275
6.520514015,8.264510155,10.37587738,-3.181855917,13.6413037,13.641303698086988
6.523020004,7.790432453,10.28016472,-3.46420908,13.35564933,13.355649329966804
6.525525994,7.079464912,10.1270237,-3.737289906,12.90901887,12.90901887449586
6.528031983,6.224628925,9.940383911,-3.919144392,12.36595853,12.365958528046232
6.530537973,5.314758301,9.77737236,-4.096213341,11.85844129,11.858441288766697
6.533043963,4.414757729,9.633803368,-4.264009953,11.42287328,11.422873282074718
6.535549952,3.507279873,9.463912964,-4.235296249,10.9455194,10.94551940359669
6.538055942,2.748456001,9.349057198,-4.208974838,10.61481748,10.61481747689642
6.540561931,2.106880426,9.217152596,-4.223331928,10.35525855,10.355258552130685
6.543067921,1.625623941,9.097511292,-4.096213341,10.10872537,10.108725371707665
6.54557391,1.340578914,9.004191399,-4.024428368,9.953322975,9.953322975953816
6.5480799,1.232901812,8.90130043,-3.947858334,9.815232124,9.815232124024593
6.55058589,1.307079315,8.879764557,-3.983750582,9.819824012,9.819824011816078
6.553091879,1.529910922,8.908478737,-4.184747696,9.960609124,9.960609123744055
6.555597869,1.814656854,8.918049812,-4.443471432,10.12763696,10.127636956076305
6.558103858,2.10209465,8.908478737,-4.711467743,10.29454825,10.294548247420536
6.560609848,2.360519648,8.903693199,-4.970191956,10.4666429,10.466642903529287
6.563115838,2.580958366,8.908478737,-5.106582642,10.58770635,10.587706350961108
6.565621827,2.741277456,8.884550095,-5.075475693,10.59293566,10.592935664468664
6.568127817,2.813062191,8.908478737,-4.9319067,10.56399621,10.563996213342739
6.570633754,2.836990356,8.934800148,-4.77637291,10.52106963,10.521069629088085
6.573139744,2.829811811,8.920442581,-4.551148891,10.40649254,10.406492538537831
6.575645785,2.772384167,8.932407379,-4.393222332,10.33317076,10.333170762753776
6.578151723,2.664707184,8.932407379,-4.249652863,10.24441874,10.24441874470577
6.58065766,2.588136673,8.946763992,-4.134498596,10.19004985,10.190049853018445
6.583163702,2.513660192,8.968298912,-4.043570995,10.15378448,10.153784483010812
6.585669692,2.444268227,8.985049248,-3.876073599,10.08610449,10.086104485844468
6.588175681,2.379662037,9.013762474,-3.797110319,10.06621836,10.066218362557304
6.590681619,2.396411896,9.05922699,-3.79471755,10.11000816,10.110008156075484
6.59318766,2.43708992,9.09990406,-3.799503326,10.15794697,10.157946972870805
6.59569365,2.470589399,9.138189316,-3.69900465,10.16331399,10.163313994668734
6.59819964,2.494517565,9.164510727,-3.55992198,10.14317106,10.143171064863232
6.600705629,2.528316259,9.202795982,-3.387638569,10.12718777,10.127187766898343
6.603211619,2.537887573,9.243474007,-3.155534744,10.09158484,10.091584839452304
6.605717608,2.528316259,9.29402256,-2.954238653,10.07465952,10.074659521303534
6.608223598,2.444268227,9.322735786,-2.731706142,10.01748812,10.017488115656905
6.610729588,2.310270309,9.356235504,-2.619243383,9.986837718,9.986837718033993
6.613235577,2.14995122,9.37298584,-2.583351135,9.957351901,9.957351901581353
6.615741567,2.003988981,9.430413246,-2.667099953,10.00310392,10.003103917564502
6.618247556,1.879263043,9.485447884,-2.853740215,10.08212202,10.082122016697374
6.620753546,1.778764486,9.557232857,-3.045166016,10.18713596,10.187135958873649
6.623259535,1.683051586,9.688838005,-3.177070379,10.33440955,10.334409548754524
6.625765525,1.541875124,9.763015747,-3.222533941,10.39608486,10.396084858016359
6.628271515,1.381256819,9.77737236,-3.078665495,10.34326167,10.343261666236119
6.630777504,1.232901812,9.784550667,-2.923131943,10.28601862,10.286018617001915
6.633283494,1.053440213,9.782157898,-2.729313374,10.21026449,10.210264488115111
6.635789483,0.8162516356,9.823135376,-2.489732027,10.16656387,10.166563869573233
6.638295473,0.579362154,9.921240807,-2.279163599,10.19613978,10.19613977772844
6.640801463,0.318544507,9.99302578,-2.145165443,10.22564275,10.225642748528127
6.643307452,0.08614161611,9.988240242,-2.049452543,10.19669649,10.196696486408891
6.645813442,-0.06939185411,9.902098656,-1.968096614,10.0960278,10.096027798328018
6.648319431,-0.2153540403,9.786943436,-1.864906192,9.965365737,9.965365737748764
6.650825421,-0.3257229924,9.652945518,-1.807478428,9.826109653,9.826109652804595
6.65333141,-0.4716851711,9.523733139,-1.860120535,9.715144271,9.715144271098145
6.6558374,-0.6104688644,9.401699066,-1.987239242,9.628797296,9.628797295974811
6.65834339,-0.7779664397,9.296415329,-2.14995122,9.573445566,9.573445565675149
6.660849379,-0.9361918569,9.209974289,-2.274377823,9.532726581,9.532726581556881
6.663355369,-1.07497561,9.152546883,-2.324627161,9.504134807,9.504134807822687
6.665861358,-1.189831018,9.119047165,-2.295913219,9.478604146,9.478604146079125
6.668367348,-1.24965167,9.095118523,-2.271985054,9.457522208,9.457522208768578
6.670873338,-1.275972724,9.114261627,-2.334198475,9.494543376,9.494543375986492
6.673379327,-1.228116274,9.188439369,-2.54506588,9.613170547,9.613170546380259
6.675885317,-1.115653515,9.308379173,-2.796312332,9.783147155,9.78314715477424
6.678391254,-0.950548768,9.42323494,-3.009273529,9.937636885,9.937636885453365
6.680897192,-0.789930582,9.461520195,-3.124428272,9.995319242,9.995319242107508
6.683403233,-0.6583253145,9.317950249,-2.973381281,9.80298859,9.802988590463212
6.685909275,-0.50518471,9.068798065,-2.638386011,9.458297452,9.45829745133901
6.688415213,-0.2775674164,8.889336586,-2.461018085,9.227890259,9.227890258587939
6.690921202,-0.0239282269,8.810373306,-2.513660192,9.161972381,9.161972381095975
6.693427192,0.2177468538,8.858229637,-2.887239695,9.319431262,9.319431262182723
6.695933129,0.36161533,8.898907661,-3.138785124,9.443161296,9.44316129590823
6.698439171,0.423828721,8.764909744,-3.073879719,9.29795731,9.297957309650876
6.70094516,0.4645066857,8.623434067,-2.966202736,9.131141234,9.131141234260372
6.70345115,0.5482555032,8.551649094,-2.908775091,9.049434173,9.049434173124979
6.70595714,0.6798607111,8.752944946,-3.110071182,9.313903509,9.313903508803987
6.708463129,0.6798607111,8.92283535,-2.978166819,9.431260725,9.43126072545445
6.710969119,0.5650052428,9.016156197,-2.504088879,9.374474097,9.374474097624063
6.713475108,0.4716851711,9.119047165,-2.319841623,9.421314837,9.421314836790746
6.715981098,0.4286143482,9.164510727,-2.250449657,9.446506803,9.446506803230092
6.718487088,0.3879363835,9.289237022,-2.367697954,9.594082171,9.594082170271124
6.720993077,0.3257229924,9.430413246,-2.42273283,9.742095454,9.742095453426336
6.723499067,0.2488535494,9.514162064,-2.530709028,9.848131602,9.848131602162232
6.726005056,0.2273181528,9.681659698,-2.970988512,10.12980655,10.129806552393084
6.728511046,0.1722832322,9.760622978,-3.210569859,10.27653644,10.276536442317429
6.731017035,0.0765703246,9.722337723,-2.980559587,10.16924035,10.169240348538125
6.733523025,-0.004785645287,9.782157898,-2.887239695,10.19935239,10.199352386312981
6.736029015,-0.07178468257,9.904491425,-2.817847729,10.29778468,10.297784676928366
6.738535004,-0.1339980662,10.13659477,-2.796312332,10.51607682,10.5160768193767
6.741040994,-0.2679961324,10.18923664,-2.614457846,10.52272565,10.522725647920828
6.743546983,-0.3783650696,10.27537823,-2.633600473,10.614255,10.614255006680269
6.746052973,-0.4621138871,10.3663063,-2.968595505,10.79288724,10.792887232913005
6.748558963,-0.5578267574,10.4216404,-3.141177893,10.89902554,10.899025546976917
6.751064952,-0.5961119533,10.38574791,-2.939881802,10.81027354,10.810273545136
6.753570942,-0.5937191248,10.49820995,-2.954238653,10.92210788,10.92210788137123
6.756076931,-0.6008976102,10.58913708,-2.908775091,10.99781226,10.997812262763766
6.758582921,-0.660718143,10.73509979,-2.937488794,11.14933883,11.149338831546155
6.76108891,-0.766002357,10.83799076,-2.903989315,11.24641975,11.246419753255216
6.7635949,-0.8066803217,11.05125141,-2.896811008,11.45305221,11.453052208233183
6.76610089,-0.8282157183,11.32164001,-3.153141975,11.78167128,11.781671278158242
6.768606879,-0.9361918569,11.4077816,-2.949453115,11.82003426,11.82003425984069
6.771112869,-1.082154036,11.47717381,-2.691028118,11.83799849,11.837998494443545
6.773618858,-1.230509043,11.58754253,-2.769991398,11.97740151,11.97740150176396
6.776124848,-1.340578914,11.61864948,-2.506481647,11.96129666,11.961296660919063
6.778630838,-1.422233939,11.74307632,-2.329412937,12.05606717,12.05606716411497
6.781136827,-1.51555407,11.83400345,-2.13559413,12.12028482,12.120284818509667
6.783642817,-1.611266971,11.82443237,-1.943869352,12.0909888,12.090988800846036
6.786148806,-1.656730533,11.78136158,-1.840977907,12.03887189,12.038871890328291
6.788654796,-1.659123421,11.66172028,-1.72372961,11.90460642,11.904606427071196
6.791160785,-1.649552107,11.56122208,-1.671087503,11.79726288,11.797262885070861
6.793666775,-1.565803289,11.49392319,-1.812264085,11.74079688,11.740796878885346
6.796172765,-1.443769336,11.46042442,-2.106880426,11.74158179,11.741581789161465
6.798678754,-1.3310076,11.42931747,-2.24566412,11.72364647,11.723646463501035
6.801184744,-1.197009563,11.52054405,-2.528316259,11.85530051,11.855300511055281
6.803690733,-1.067797065,11.71436214,-2.798705101,12.091287,12.091286993593835
6.806196723,-1.031904817,11.90578842,-2.693420887,12.25018945,12.25018944864453
6.80870266,-0.9888339639,12.09512043,-2.482553482,12.38679953,12.386799530764835
6.81120865,-0.9074779749,12.40379429,-2.350948334,12.65719507,12.657195073660775
6.81371464,-0.8114659786,12.80608749,-2.331805706,13.04191979,13.041919785311283
6.816220629,-0.7540382147,13.15065384,-2.221735716,13.35830751,13.358307514070964
6.818726619,-0.7085745931,13.50987625,-2.257628202,13.7155284,13.715528401879624
6.821232608,-0.684646368,13.86192036,-2.458625317,14.09490742,14.094907419546658
6.823738598,-0.6415755749,14.27587891,-2.734098911,14.54948915,14.549489156888718
6.826244588,-0.6391827464,14.68535042,-2.791526794,14.96197491,14.961974915869547
6.828750629,-0.6966105103,15.05414486,-2.583351135,15.2900702,15.290070201134807
6.831256567,-0.6990033388,15.39631844,-2.140379906,15.56009168,15.560091687247416
6.833762504,-0.5841478109,15.8249321,-1.778764486,15.93529754,15.935297541346523
6.836268546,-0.3783650696,16.37318802,-1.695015788,16.46503946,16.465039465052435
6.838774535,-0.1794617027,17.16341782,-2.140379906,17.29729296,17.297292964757176
6.841280525,-0.1220339537,18.21895218,-3.042773008,18.47169668,18.471696684419534
6.843786515,-0.4262215197,19.3707962,-3.959822416,19.77598554,19.775985532257195
6.846292504,-1.161117196,20.33540344,-4.165605068,20.79012005,20.79012005239407
6.848798494,-2.204986095,21.14956093,-3.981357813,21.6337029,21.633702901862684
6.851304483,-3.411566973,21.69303131,-3.342175007,22.21253093,22.212530932005926
6.853810473,-4.651647091,21.91316986,-2.523231506,22.54310385,22.543103850297374
6.856316463,-5.870192051,21.74328041,-1.577767372,22.57695169,22.576951689359245
6.858822452,-6.808776855,21.40080833,-0.8377870321,22.47344937,22.473449369194217
6.861328442,-7.538887024,20.89083672,-0.1746760458,22.21018658,22.210186585062996
6.863834431,-8.051250458,20.44786644,0.2512463629,21.97728374,21.97728374072633
6.866340421,-8.451150894,19.90200233,0.2632105052,21.62361968,21.623619677254084
6.86884641,-8.731410027,19.32264137,-0.1363908947,21.20425884,21.20425884225593
6.8713524,-8.874979019,18.84646988,-0.9218349457,20.85196535,20.851965355633777
6.87385839,-8.941978455,18.43460464,-1.903191328,20.5770689,20.57706889121403
6.876364379,-9.013762474,18.16630936,-2.81545496,20.47411772,20.47411771805327
6.878870369,-9.061619759,18.08734703,-3.55992198,20.54113239,20.541132387091906
6.881376358,-9.05922699,18.28624916,-4.017250061,20.79891343,20.798913434373194
6.883882348,-9.12861824,18.75045776,-4.201497555,21.27354975,21.273549748123276
6.886388338,-9.229117393,19.40908241,-4.148855209,21.88840075,21.888400750104903
6.888894327,-9.296415329,20.05544281,-3.847359657,22.43760907,22.437609066136215
6.891400317,-9.190832138,20.42393684,-3.454637766,22.66148966,22.66148965817288
6.893906306,-8.656932831,20.28993988,-3.361317635,22.31417941,22.314179407224948
6.896412296,-7.373782158,19.82304001,-4.089034557,21.54172189,21.541721894037163
6.898918285,-5.456233978,19.46890259,-5.676373482,21.00071125,21.00071125435382
6.901424275,-3.49531579,19.58136559,-7.862216949,21.38835118,21.388351179887668
6.903930265,-1.929512382,19.8972168,-9.62901783,22.18874126,22.188741261931725
6.906436254,-0.6750751138,20.12244225,-10.19162941,22.56629607,22.56629607500163
6.908942244,0.4286143482,20.11047745,-9.734301567,22.34662481,22.346624812793095
6.911448233,1.3310076,19.74407768,-8.736195564,21.63148857,21.63148856638362
6.913954223,1.927119493,18.90629005,-7.632505894,20.47966649,20.479666482073732
6.916460213,2.293520451,17.69013786,-6.751348972,19.0730681,19.073068093693948
6.918966202,2.707777977,16.35165215,-6.152844429,17.67953857,17.6795385735828
6.921472192,3.325425386,15.31256962,-5.621338367,16.64730271,16.647302706489914
6.923978181,4.153641224,14.64706516,-5.140082359,16.06890475,16.068904750364943
6.926484171,5.082654476,14.15863037,-4.989334106,15.84908973,15.849089730895715
6.92899016,6.026024818,14.01266861,-5.250152111,16.13170648,16.131706477290898
6.93149615,6.973881721,14.54178143,-5.609374523,17.07523106,17.075231065952586
6.93400214,7.606184959,15.8943243,-5.911169052,18.58562655,18.585626547023132
6.936508129,7.704290867,17.39312935,-6.933203697,20.24713214,20.24713213897873
6.939014119,7.43360281,18.46092606,-8.467900276,21.62798134,21.627981339318467
6.941520108,6.748956203,19.57658005,-8.805587769,22.50176153,22.501761536413824
6.944026098,5.726622581,20.826231,-8.046463966,23.04933158,23.049331578306486
6.946532088,4.165605068,20.90758705,-6.892525673,22.40505238,22.405052376391335
6.949038077,2.480160713,17.08415604,-4.433900356,17.82355343,17.8235534371885
6.951544067,2.470589399,9.897313118,-0.6942176819,10.22460548,10.224605475227328
6.954050056,4.151247978,2.877668381,0.7109674215,5.10091264,5.1009126399391125
6.956556046,6.504888535,-1.90079844,-0.5338985324,6.797915651,6.797915651519939
6.959062035,9.221938133,-4.09860611,-2.528316259,10.40360986,10.403609858089288
6.961568025,11.98953724,-3.914358854,-3.780360699,13.16671316,13.16671316167322
6.964074015,14.331213,-1.671087503,-3.990929127,14.97009401,14.97009401409319
6.966580004,15.90868092,1.898405671,-3.76361084,16.4576681,16.457668099127
6.969085994,16.61037636,5.858228207,-3.718147278,18.00133494,18.001334942915655
6.971591983,16.53350639,9.461520195,-4.165605068,19.49947342,19.49947341676464
6.974097973,15.90389538,12.33200932,-4.61814785,20.6479934,20.647993405922325
6.976603963,14.7643137,14.49153233,-4.292723656,21.12858122,21.12858122757477
6.979109952,13.01665592,15.47558022,-3.710968733,20.55962556,20.559625566206936
6.981615942,10.73031425,14.99910927,-3.768396616,18.82322331,18.823223311979095
6.984121931,8.024929047,13.35434341,-4.237689018,16.14608257,16.14608256930679
6.986627921,5.147260666,11.17567825,-4.285545349,13.02904355,13.029043543161922
6.98913391,2.506481647,8.934800148,-3.964607954,10.09114563,10.09114563170945
6.9916399,0.2560320199,6.868597507,-3.734897137,7.822572514,7.822572513716411
6.99414589,-1.522732496,5.144867897,-3.663112402,6.496673949,6.496673949155968
6.996651879,-2.870489836,3.804288864,-3.571886063,5.955727974,5.9557279745122145
6.999157869,-3.840181351,2.822633505,-3.303889751,5.799132711,5.799132710921488
7.001663858,-4.424329281,2.140379906,-2.973381281,5.744293862,5.74429386181833
7.004169848,-4.627718925,1.697408557,-2.705385208,5.622818456,5.622818455351834
7.006675838,-4.369294167,1.474876046,-2.477767944,5.235009537,5.235009537064742
7.009181827,-3.694219112,1.438983679,-2.305484533,4.586195353,4.586195352118864
7.011687817,-2.679064035,1.587338686,-2.255235434,3.844881672,3.844881671842692
7.014193806,-1.450947881,1.848156333,-2.298306227,3.286813517,3.286813517322419
7.016699796,-0.1842473447,2.178664923,-2.32701993,3.193047084,3.1930470847384638
7.019205785,1.039083242,2.54506588,-2.34137702,3.610969491,3.6109694913041683
7.021711775,2.164308071,2.884846687,-2.35812664,4.308982605,4.308982604277755
7.024217713,3.083451033,3.177070379,-2.42273283,5.046888232,5.046888232523856
7.02672365,3.804288864,3.346960783,-2.520838737,5.659451227,5.659451226192708
7.029229692,4.309473515,3.423531055,-2.674278498,6.119141471,6.119141471309599
7.031735681,4.66839695,3.468994617,-2.875275612,6.488070867,6.488070867407835
7.034241671,4.900799751,3.471387386,-3.119642496,6.767609467,6.767609466121009
7.03674766,5.022833824,3.392424345,-3.339782238,6.920371952,6.920371952238365
7.03925365,5.077868938,3.299104214,-3.547957659,7.018322101,7.0183221012144035
7.04175964,5.077868938,3.177070379,-3.684647799,7.032436175,7.032436174420639
7.044265629,5.018048286,3.069094181,-3.766003847,6.984477981,6.984477981073058
7.046771619,4.922335148,2.956631422,-3.770789385,6.869490902,6.869490902594063
7.049277608,4.807479858,2.820240498,-3.69900465,6.689413611,6.6894136105010436
7.051783598,4.694717884,2.726920605,-3.598206997,6.513337515,6.513337515405045
7.054289588,4.61814785,2.683849812,-3.468994617,6.36900801,6.369008009934281
7.056795577,4.53918457,2.667099953,-3.303889751,6.215569661,6.215569660665185
7.059301567,4.436293125,2.602493763,-3.095714331,6.003092344,6.003092344495039
7.061807556,4.383651257,2.607279301,-2.889632463,5.862105378,5.86210537841518
7.064313546,4.328616142,2.635993242,-2.657528639,5.722572546,5.72257254595849
7.066819535,4.247260094,2.600100994,-2.432304144,5.542187919,5.542187919405499
7.069325525,4.144069672,2.561815739,-2.240878344,5.362625203,5.362625204094211
7.071831515,4.067499161,2.540280342,-2.059023857,5.218922579,5.218922578883739
7.074337504,4.038785458,2.549851656,-1.891227245,5.137146283,5.13714628325771
7.076843494,4.038785458,2.604886532,-1.771586061,5.122083461,5.12208346201785
7.079349483,4.067499161,2.679064035,-1.651944876,5.14303951,5.14303951002798
7.081855473,4.077070713,2.760420084,-1.587338686,5.173206814,5.173206814252172
7.084361463,4.136891365,2.791526794,-1.570588946,5.231944347,5.2319443464861966
7.086867452,4.191926003,2.853740215,-1.620838284,5.323832602,5.323832601821349
7.089373442,4.230510235,2.944667339,-1.687837243,5.423751206,5.423751206007788
7.091879431,4.232903481,3.011666298,-1.697408557,5.465235729,5.465235729531505
7.094385421,4.206283092,3.066701412,-1.728515267,5.485001371,5.4850013699779465
7.09689141,4.172783375,3.148356438,-1.771586061,5.51931033,5.519310330729912
7.0993974,4.132105827,3.244069338,-1.797907114,5.55254486,5.552544860318638
7.10190339,4.136891365,3.358924866,-1.83619225,5.636297402,5.636297401681777
7.104409379,4.218546391,3.459423304,-1.927119493,5.785977254,5.785977254498844
7.106915369,4.295116425,3.567100286,-2.111665964,5.969201178,5.969201177561543
7.109421358,4.376472473,3.696611881,-2.257628202,6.157543001,6.15754300059227
7.111927348,4.345366001,3.770789385,-2.346162558,6.213335418,6.213335418053376
7.114433338,4.299902439,3.818645954,-2.353341103,6.213648868,6.213648867934845
7.116939327,4.244867325,3.84257412,-2.34137702,6.185977758,6.185977758150324
7.119445317,4.208974838,3.854538202,-2.279163599,6.145528509,6.145528508484942
7.121951306,4.189533234,3.87368083,-2.16670084,6.10345676,6.103456760030064
7.124457296,4.223331928,3.892823458,-2.035095692,6.09362138,6.093621380166004
7.126963285,4.287938118,3.919144392,-1.8840487,6.107024281,6.107024281359467
7.129469275,4.417150497,3.990929127,-1.726122379,6.19824429,6.198244289891207
7.131975265,4.606183529,4.134498596,-1.630409479,6.400721867,6.400721866506145
7.134481254,4.812265396,4.287938118,-1.625623941,6.647327639,6.647327639201244
7.136987244,4.991727352,4.421936035,-1.656730533,6.871362042,6.871362042078042
7.139493233,5.116153717,4.498506546,-1.730908036,7.029056312,7.029056311445167
7.141999223,5.195116997,4.594219685,-1.845763564,7.176554762,7.176554762610663
7.144505213,5.257330418,4.697110653,-1.955833435,7.316259702,7.316259702608843
7.147011202,5.309972763,4.807479858,-2.08534503,7.460317502,7.460317501489012
7.149517192,5.307579517,4.898406982,-2.16670084,7.540516151,7.540516150810964
7.152023181,5.300401211,4.970191956,-2.257628202,7.608807145,7.608807145375884
7.154529171,5.26690197,5.015655518,-2.279163599,7.621787411,7.621787411614179
7.15703516,5.286044121,5.1233325,-2.295913219,7.711161772,7.711161771347678
7.15954115,5.355735302,5.242973328,-2.350948334,7.854911076,7.854911076030447
7.16204714,5.401198864,5.346164227,-2.384447813,7.964923884,7.964923884347539
7.164553129,5.499304771,5.518447399,-2.39162612,8.149569937,8.149569936980692
7.167059119,5.549553871,5.736194134,-2.394019127,8.332634571,8.332634570801059
7.169565108,5.587839127,6.018846035,-2.331805706,8.537433546,8.537433546025497
7.172071098,5.611767292,6.337091446,-2.238485575,8.755654048,8.755654047757396
7.174577088,5.662016392,6.629314899,-2.243271112,9.002139242,9.002139242164263
7.177083077,5.740979671,6.7704916,-2.379662037,9.190277227,9.190277226441259
7.179589067,5.870192051,6.748956203,-2.535494804,9.297112372,9.297112371416556
7.182095056,6.016453266,6.710670948,-2.743670225,9.421175127,9.421175127225098
7.184601046,6.124130249,6.713063717,-2.834597588,9.518673188,9.518673188061141
7.187107035,6.229414463,6.847062111,-2.753241539,9.657546431,9.657546431459723
7.189613025,6.361020088,7.122535706,-2.580958366,9.892140189,9.89214018957525
7.192119015,6.473781586,7.519744396,-2.42273283,10.21401185,10.214011854798578
7.194625004,6.5790658,7.981858253,-2.37248373,10.6123912,10.612391201837056
7.197130994,6.669992924,8.451150894,-2.425125837,11.03594094,11.035940936986389
7.199636983,6.768098831,8.874979019,-2.580958366,11.45573046,11.455730463872618
7.202142973,6.894918442,9.260522842,-2.71974206,11.86145777,11.861457773055069
7.204648963,7.055536747,9.676874161,-2.892025232,12.32015837,12.320158369867713
7.207154952,7.256533623,10.08156013,-3.014059305,12.78200643,12.782006429766502
7.209660942,7.455138206,10.51256752,-3.133999348,13.26329949,13.263299493202446
7.212166931,7.689933777,10.93131161,-3.265604734,13.75837306,13.758373061095904
7.214672921,7.948358536,11.34317589,-3.459423304,14.27626184,14.276261845614194
7.21717891,8.231010437,11.71675491,-3.706183195,14.79079688,14.790796878799751
7.2196849,8.518149376,12.02542973,-3.978965044,15.26440276,15.264402766056424
7.22219089,8.800801277,12.28893852,-4.223331928,15.69422332,15.694223320688693
7.224696879,9.004191399,12.5306139,-4.467400074,16.06391642,16.06391642414371
7.227202869,9.092725754,12.73908901,-4.58943367,16.31027136,16.31027136051045
7.229708858,9.066405296,12.88505077,-4.642076015,16.42477118,16.424771172404586
7.232214848,8.90130043,13.02144146,-4.637290478,16.44066757,16.440667566089722
7.234720838,8.621041298,13.12672615,-4.60379076,16.36545697,16.365456970117783
7.237226827,8.254939079,13.24188042,-4.52482748,16.24701449,16.24701449434153
7.239732817,7.876574039,13.48355579,-4.409972191,16.22635357,16.226353566321812
7.242238806,7.486244678,13.90499115,-4.33340168,16.37592771,16.375927710535624
7.244744796,7.136892796,14.35514164,-4.357329845,16.61299653,16.612996528747797
7.247250785,6.823133945,14.78584957,-4.517649174,16.89927982,16.8992798188983
7.249756775,6.550352097,15.12114334,-4.788337231,17.16054375,17.160543754242735
7.252262765,6.27966404,15.3987112,-5.149653435,17.40900393,17.409003922593673
7.254768754,6.026024818,15.54736519,-5.511268616,17.56153812,17.561538122160094
7.257274744,5.786443233,15.58086491,-5.798407555,17.60306242,17.603062426926797
7.259780733,5.621338367,15.54975796,-5.961418629,17.57648798,17.576487980284284
7.262286723,5.520840168,15.50190163,-5.947061539,17.49731897,17.49731897335852
7.264792713,5.482554913,15.41785336,-5.82233572,17.36859821,17.36859821174155
7.267298702,5.477769375,15.33410454,-5.599802971,17.21913217,17.21913216986724
7.269804692,5.55194664,15.14746475,-5.295615673,16.97979226,16.979792260272887
7.272310681,5.592624664,14.83849144,-4.91754961,16.60242672,16.602426720637727
7.274816671,5.638088226,14.38385487,-4.433900356,16.07304551,16.07304551515734
7.27732266,5.635695457,13.773386,-3.833002806,15.36747005,15.367470048770237
7.27982865,5.614160061,13.04058456,-3.145963669,14.54210186,14.542101851648058
7.28233464,5.642873764,12.2602253,-2.398804665,13.70800541,13.708005418149842
7.284840629,5.748157978,11.46520996,-1.64476645,12.93049173,12.930491724678294
7.287346619,5.908776283,10.68963623,-0.9672985673,12.25224985,12.252249850969108
7.289852608,6.133701801,9.983454704,-0.423828721,11.72481541,11.724815409854216
7.292358598,6.435197353,9.29402256,-0.04546362907,11.30454277,11.30454277091362
7.294864588,6.794419765,8.592327118,0.1100698411,10.95464927,10.954649269404321
7.297370577,7.187141895,7.945965767,0.09810572863,10.71461643,10.714616433787544
7.299876567,7.646862984,7.380960464,0.002392822644,10.62793943,10.62793943306042
7.302382556,8.166404724,6.894918442,-0.0933200866,10.68825407,10.688254070546988
7.304888546,8.707481384,6.552744865,-0.1292124242,10.89841242,10.898412415074871
7.307394535,9.270093918,6.361020088,-0.2632105052,11.24573242,11.245732416278086
7.309900525,9.798908234,6.418447495,-0.4692923427,11.72328052,11.723280519007538
7.312406515,10.29212856,6.751348972,-0.7588238716,12.3322519,12.33225189920329
7.314912504,10.61067295,7.313961506,-1.197009563,12.9426908,12.94269080435073
7.317418494,10.73749256,7.835896015,-1.785943031,13.41210667,13.412106670613893
7.319924483,10.50778198,8.233403206,-2.42273283,13.56731532,13.56731531502617
7.322430473,10.00977516,8.400900841,-3.093321562,13.42904956,13.429049556093002
7.324936463,9.255437851,8.27408123,-3.770789385,12.97468314,12.974683140654745
7.327442452,8.386544228,8.051250458,-4.395615101,12.42892554,12.428925542531204
7.329948442,7.562815189,7.737790108,-4.752145767,11.81746414,11.817464141229614
7.332454431,6.949953556,7.412067413,-4.733003139,11.2090105,11.209010504018515
7.334960421,6.607779503,7.172784805,-4.352544308,10.67971132,10.679711315022004
7.33746641,6.574280262,6.945167542,-3.720540047,10.26152676,10.261526757315593
7.3399724,6.813562393,6.748956203,-2.966202736,10.03849595,10.038495952301318
7.34247839,7.282855034,6.569494724,-2.219342947,10.05602911,10.05602911149931
7.344984379,7.862216949,6.399304867,-1.527518153,10.25177399,10.251773985106054
7.347490369,8.405686378,6.234200478,-0.9984052777,10.51273666,10.51273666481423
7.349996358,8.805587769,6.07148838,-0.6702894568,10.71683886,10.716838855834993
7.352502348,9.166903496,5.990132332,-0.5482555032,10.96423226,10.964232264807139
7.355008338,9.480662346,6.002096653,-0.6774678826,11.24131156,11.241311555275503
7.357514327,9.763015747,6.059524059,-0.8668000102,11.52326562,11.523265620276769
7.360020317,10.00977516,6.167201042,-0.9744769931,11.79743925,11.797439249950818
7.362526306,10.3663063,6.916453838,-1.264008522,12.52578771,12.525787701469845
7.365032296,10.94088268,10.49342442,-1.888834357,15.27686372,15.276863719492948
7.367538285,9.926026344,17.55584145,-0.6272186637,20.17738762,20.177387622073716
7.370044275,7.110571384,19.53590202,-2.295913219,20.91609215,20.916092145790014
7.372550265,5.685945034,18.01077652,-6.296413898,19.9088641,19.90886410014344
7.375056254,6.272485256,18.12563133,-6.890132904,20.3802972,20.38029719686635
7.377562244,7.211070061,19.53590202,-8.300402641,22.41757532,22.417575318539928
7.380068233,6.298806667,21.7049942,-10.17248726,24.78429413,24.784294133687563
7.382574223,3.380460262,24.25694084,-10.92413235,26.8172213,26.81722129711685
7.385080213,-0.5099703074,27.37179756,-10.00977516,29.14911611,29.149116112393607
7.387586202,-5.278865814,31.42733192,-6.811169624,32.58735411,32.58735410460581
7.390092192,-11.32403278,34.94897079,-2.923131943,36.85388688,36.85388687830599
7.392598181,-19.32024765,36.47648621,1.141974568,41.29297908,41.292979081190175
7.395104171,-28.13062096,35.68655777,6.772884369,45.94272743,45.94272743038427
7.39761016,-35.76073456,31.82962608,14.18255901,49.93095446,49.93095445448171
7.40011615,-40.04358673,25.20988274,20.85494423,51.71030579,51.71030578911705
7.40262214,-38.92793274,16.59601974,23.37129784,48.34283175,48.3428317472862
7.405128129,-31.59722328,7.416852951,19.79911232,38.01840443,38.01840442947215
7.407634119,-21.70738792,-0.2081755698,11.6401844,24.63225366,24.632253657414843
7.410140108,-13.03340626,-4.953442097,2.190629244,14.11400453,14.114004528524388
7.412646098,-6.207879066,-6.282056808,-5.2238307,10.26111141,10.261111412477826
7.415152088,-1.180259824,-4.680361271,-9.674481392,10.81177067,10.811770672899954
7.417658077,2.250449657,-0.9840483069,-12.0350008,12.28308263,12.283082633647176
7.420164067,4.718646049,3.502494097,-13.11715508,14.37333791,14.373337915321999
7.422670056,7.007380962,7.632505894,-12.580863,16.29836335,16.298363353211688
7.425176046,9.349057198,10.70399284,-10.51496029,17.67893445,17.678934444997633
7.427682035,11.62582779,12.49950695,-7.402495861,18.60630245,18.606302447503015
7.430188025,13.67737389,13.09801197,-4.235296249,19.40531392,19.40531392196247
7.432694015,15.41306782,12.69362545,-1.654337764,20.03565871,20.035658714556998
7.435200004,16.68216133,11.8651104,0.1148554832,20.47165219,20.471652186043915
7.437705994,17.48644829,10.96750259,0.8500502706,20.65876502,20.658765024150107
7.440211983,17.94377708,10.27059269,0.7061817646,20.68726427,20.687264265370334
7.442717973,18.09452438,9.801301003,-0.04785645381,20.57862008,20.578620073513054
7.445223963,18.00599098,9.478269577,-1.024726272,20.37408573,20.374085728656688
7.447729952,17.81695747,9.361021042,-1.539482236,20.18520979,20.185209783193116
7.450235942,17.43380737,9.296415329,-1.635195136,19.82510632,19.825106317907366
7.452741931,16.65105438,9.303593636,-1.750050664,19.15403727,19.154037272494374
7.455247921,15.52582932,9.092725754,-2.092523336,18.11374317,18.113743169840163
7.45775391,14.60399437,8.487042427,-3.586242914,17.26753251,17.26753250916022
7.4602599,13.58166122,7.65404129,-4.951049328,16.35722345,16.357223450578832
7.46276589,12.43729401,6.677171707,-5.93031168,15.31141734,15.311417338636147
7.465271879,11.50618649,5.798407555,-6.978667259,14.65317898,14.653178987113279
7.467777869,10.90977573,5.144867897,-8.333902359,14.66106411,14.661064104826224
7.470283858,10.38335514,4.824229717,-9.583553314,14.93089918,14.930899184176106
7.472789848,9.767801285,5.006083965,-10.56999493,15.23796612,15.237966118485218
7.475295838,8.975478172,5.762515068,-11.13260746,15.41754641,15.417546406073281
7.477801827,7.984251022,6.971488953,-11.2378912,15.44798114,15.447981137583852
7.480307817,6.882954121,8.33150959,-10.99860954,15.41942027,15.419420264505144
7.482813806,5.889334679,9.468698502,-10.50299549,15.31840163,15.318401631567486
7.485319796,5.152046204,10.1964159,-9.810872078,15.05867485,15.058674849561088
7.487825785,4.65403986,10.51496029,-9.011369705,14.60921835,14.60921835277088
7.490331775,4.331008911,10.49342442,-8.108677864,13.95063622,13.950636220170653
7.492837765,4.081856251,10.246665,-7.136892796,13.13738684,13.1373868351986
7.495343754,3.914358854,9.827920914,-6.011667728,12.16759564,12.167595637660034
7.497849744,3.854538202,9.339486122,-4.793122768,11.1829107,11.18291069636291
7.500355733,3.914358854,8.92283535,-3.672683716,10.41286712,10.412867117123382
7.502861723,4.077070713,8.644968987,-2.779562712,9.954092789,9.95409278914633
7.505367713,4.345366001,8.542078018,-2.250449657,9.844482019,9.844482018213906
7.507873702,4.579862595,8.484649658,-2.030309916,9.853252233,9.853252232795402
7.510379692,4.737788677,8.453543663,-2.030309916,9.901070668,9.901070667617962
7.512885681,4.756931305,8.436793327,-2.209771633,9.934332779,9.934332778451315
7.515391671,4.541577339,8.386544228,-2.533101797,9.867960961,9.867960961023462
7.51789766,4.1129632,8.400900841,-2.839383125,9.775157173,9.77515717292584
7.52040365,3.701397419,8.549256325,-3.131606579,9.828381674,9.828381673987252
7.522909588,3.344567776,8.786444664,-3.291925669,9.961150438,9.961150438177949
7.525415629,3.052344322,8.982656479,-3.076272726,9.973383436,9.973383436151334
7.527921619,2.762812853,9.224330902,-2.695813894,9.999441385,9.999441384466312
7.530427608,2.482553482,9.418449402,-2.236092806,9.993516496,9.9935164965126
7.532933598,2.310270309,9.526125908,-1.680658817,9.945302297,9.945302296807052
7.535439588,2.23130703,9.533304214,-1.460519075,9.899279584,9.89927958324425
7.537945525,2.178664923,9.468698502,-1.541875124,9.837693381,9.837693381402861
7.540451567,2.267199516,9.389735222,-1.946262121,9.853692578,9.853692578331103
7.542957556,2.496910334,9.363413811,-2.679064035,10.05412669,10.054126690851474
7.545463546,2.825026274,9.387342453,-3.77796793,10.50599893,10.50599892722224
7.547969588,3.234498024,9.466305733,-4.855336189,11.11967676,11.119676758166202
7.550475525,3.816252947,9.652945518,-5.714658737,11.84907035,11.849070352113406
7.552981515,4.42672205,9.731908798,-6.219843388,12.3690084,12.369008397272326
7.555487556,4.9319067,9.712766647,-6.140880108,12.50487697,12.50487697410137
7.557993546,5.449055195,9.719944954,-5.705087185,12.51868812,12.518688118784564
7.560499483,5.985346794,9.724730492,-5.053940296,12.4874766,12.487476602661292
7.563005473,6.538387775,9.772586823,-4.465006828,12.57737071,12.577370706289502
7.565511515,7.079464912,9.890133858,-3.856930971,12.75968212,12.759682115337206
7.568017504,7.596613884,9.937990189,-3.39960289,12.962619,12.962618998834232
7.570523494,7.742575645,9.971489906,-3.033201694,12.98377453,12.983774531333003
7.573029431,7.495816231,9.878170013,-2.700599432,12.69089205,12.690892051655556
7.575535421,7.012166977,9.784550667,-2.408375978,12.2763265,12.276326499398218
7.578041463,6.382555485,9.648159981,-2.362912416,11.80708942,11.807089422197176
7.580547452,5.712265968,9.607481956,-2.571387053,11.4693384,11.469338402905922
7.583053442,5.04676199,9.526125908,-2.915953398,11.16779592,11.16779591585042
7.585559431,4.419543266,9.506983757,-3.440280676,11.03406697,11.034066973041572
7.588065421,3.703790426,9.34427166,-3.89043045,10.77816893,10.778168928992327
7.59057141,3.064308405,9.262915611,-4.304687977,10.66404849,10.664048489986788
7.5930774,2.59052968,9.202795982,-4.666004181,10.6383219,10.638321903683199
7.59558339,2.305484533,9.181260109,-4.896014214,10.65747396,10.657473964533386
7.598089379,2.090130568,9.135796547,-4.888835907,10.57034251,10.570342514083336
7.600595369,2.015953064,9.176474571,-4.888835907,10.5911505,10.591150496241339
7.603101358,2.049452543,9.260522842,-4.91754961,10.68362454,10.683624534773958
7.605607348,2.123630047,9.277272224,-4.922335148,10.71480134,10.71480134225359
7.608113338,2.312663078,9.387342453,-5.274080276,11.01301646,11.013016462347304
7.610619327,2.417947292,9.253045082,-5.321936607,10.94478514,10.944785134727002
7.613125317,2.470589399,9.004191399,-5.053940296,10.6170423,10.617042302063664
7.615631306,2.691028118,9.011369705,-5.233402252,10.76266303,10.762663026560716
7.618137296,2.930310488,8.946763992,-5.2238307,10.76660172,10.766601723240859
7.620643285,3.057130098,8.836693764,-4.773980141,10.498766,10.498765998986563
7.623149275,3.16032052,8.874979019,-4.34775877,10.37573538,10.375735381115653
7.625655265,3.184248686,8.886942863,-3.986143351,10.24726949,10.247269487977803
7.628161254,3.162713289,8.920442581,-3.581457376,10.11948063,10.119480625281119
7.630667244,3.107678413,8.963513374,-3.461816072,10.09883199,10.098831993892192
7.633173233,3.045166016,8.997013092,-3.346960783,10.07082058,10.070820578560651
7.635679223,3.016452074,9.023334503,-3.492922783,10.13509044,10.135090440433652
7.638185213,2.968595505,9.147761345,-3.90478754,10.37985851,10.379858507220685
7.640691202,2.853740215,9.217152596,-4.316651821,10.57039347,10.570393471219527
7.643197192,2.602493763,9.011369705,-4.304687977,10.32027598,10.320275981095373
7.645703181,2.348555326,8.796015739,-4.201497555,10.02687323,10.026873226718768
7.648209171,2.161915302,8.649754524,-4.010071754,9.776134542,9.776134541356766
7.65071516,2.090130568,8.647361755,-3.84257412,9.690762972,9.690762972068734
7.65322115,2.02073884,8.628219604,-3.454637766,9.511260752,9.511260751793525
7.65572714,2.00638175,8.736195564,-3.208176851,9.520455839,9.520455838166502
7.658233129,1.953440547,8.982656479,-3.270390272,9.757023108,9.757023107565983
7.660739119,1.819442511,9.107083321,-3.150749207,9.806964781,9.806964781821208
7.663245108,1.642373681,9.032905579,-2.963809967,9.647535645,9.647535645316857
7.665751098,1.491625786,8.831908226,-2.896811008,9.413769936,9.413769936322884
7.668257088,1.505982757,8.74576664,-2.980559587,9.361631996,9.3616319964724
7.670763077,1.668694735,8.975478172,-3.447459221,9.758520668,9.758520667351334
7.673269067,1.797907114,9.181260109,-3.84257412,10.11401913,10.114019134220595
7.675775056,1.843370795,9.253045082,-3.703790426,10.13582373,10.13582373056638
7.678281046,1.886441588,9.375378609,-3.670290947,10.24340869,10.243408688647587
7.680787035,1.927119493,9.435198784,-3.59102869,10.27775524,10.27775523576519
7.683293025,1.994417667,9.487840652,-3.267997503,10.23115975,10.231159745981866
7.685799015,2.145165443,9.490233421,-2.805883646,10.12616651,10.12616651047162
7.688305004,2.329412937,9.49262619,-2.429911375,10.07177174,10.071771736119283
7.690810994,2.542673111,9.480662346,-2.322234392,10.08667029,10.086670294981008
7.693316983,2.68624258,9.528518677,-2.439482689,10.19606018,10.196060178641236
7.695822973,2.743670225,9.566803932,-2.57617259,10.28047319,10.280473189029262
7.698328963,2.614457846,9.506983757,-2.621636391,10.20250495,10.202504954715204
7.700834952,2.389233351,9.425627708,-2.760420084,10.10795789,10.10795789145852
7.703340942,2.13559413,9.408877373,-3.179463148,10.15857872,10.15857872035906
7.705846931,1.814656854,9.346664429,-3.435495138,10.1220424,10.122042397131358
7.708352921,1.498804331,9.217152596,-3.461816072,9.959241282,9.959241282192705
7.71085891,1.2352947,9.013762474,-3.181855917,9.638364696,9.63836469584372
7.7133649,1.086939692,8.836693764,-2.980559587,9.388947227,9.388947226628721
7.71587089,1.082154036,8.779266357,-2.892025232,9.306470065,9.30647006481554
7.718376879,1.182652593,8.834300995,-2.793919563,9.340745567,9.340745567164417
7.720882869,1.359721422,8.985049248,-2.817847729,9.514211378,9.514211378683024
7.723388858,1.489233017,9.119047165,-2.848954439,9.669093937,9.669093937485314
7.725894848,1.561017632,9.159725189,-2.84656167,9.718037607,9.718037606766561
7.728400838,1.568196177,9.154939651,-2.860918522,9.718899838,9.718899837560425
7.730906827,1.537089467,9.152546883,-2.872882605,9.715205244,9.715205244213163
7.733412817,1.482054472,9.176474571,-2.903989315,9.738445716,9.738445715401355
7.735918806,1.400399446,9.255437851,-2.949453115,9.814454753,9.814454753049903
7.738424796,1.31425786,9.358628273,-2.97577405,9.907897258,9.90789725781511
7.740930785,1.252044439,9.361021042,-2.915953398,9.884286238,9.884286238535656
7.743436775,1.228116274,9.303593636,-2.863311291,9.811405387,9.811405387377052
7.745942765,1.199402332,9.202795982,-2.789133787,9.690680427,9.690680426167573
7.748448754,1.213759303,9.044869423,-2.683849812,9.512408966,9.512408966088024
7.750954744,1.259222865,8.946763992,-2.626421928,9.408948948,9.408948947473666
7.753460681,1.3310076,8.913264275,-2.662314177,9.39711541,9.397115410821781
7.755966723,1.383649707,8.92283535,-2.748456001,9.438510878,9.438510877480818
7.758472713,1.371685624,8.997013092,-2.848954439,9.536472483,9.536472483272076
7.760978702,1.292722464,9.193224907,-3.122035265,9.794570933,9.794570932691181
7.763484692,1.151545882,9.305986404,-3.184248686,9.902872339,9.902872339078028
7.765990681,1.01036942,9.349057198,-3.110071182,9.904456553,9.904456553160987
7.768496723,0.9002995491,9.404091835,-2.980559587,9.906120228,9.906120227964172
7.771002713,0.8282157183,9.509376526,-3.054737091,10.02225533,10.022255329236536
7.773508702,0.7588238716,9.485447884,-2.932703257,9.957423543,9.957423543357413
7.776014692,0.6798607111,9.375378609,-2.607279301,9.754888005,9.754888005611095
7.778520629,0.6511468887,9.396913528,-2.657528639,9.787156615,9.787156614179539
7.781026619,0.6391827464,9.497411728,-2.913560629,9.954808871,9.954808870757201
7.78353266,0.5602195859,9.562018394,-2.982952595,10.03215071,10.03215071336339
7.78603865,0.4142574072,9.55005455,-2.868097067,9.980036668,9.980036667925113
7.78854464,0.2273181528,9.516554832,-2.875275612,9.944028322,9.944028321460923
7.791050629,0.04067798331,9.399306297,-2.944667339,9.849856817,9.84985681624476
7.793556619,-0.1196411327,9.298808098,-3.018844843,9.777298718,9.77729871846881
7.796062608,-0.2850449979,9.322735786,-3.153141975,9.845656784,9.845656783622907
7.798568598,-0.4310071766,9.42323494,-3.234498024,9.972216473,9.972216473180746
7.801074588,-0.5099703074,9.648159981,-3.284747362,10.20473547,10.204735467691728
7.803580577,-0.5530411601,9.882955551,-3.155534744,10.38922829,10.389228290320586
7.806086567,-0.5434698462,10.23230743,-3.232105255,10.74439292,10.7443929188745
7.808592556,-0.4740779996,10.48863888,-3.361317635,11.0242801,11.024280101127438
7.811098546,-0.2994019389,10.73749256,-3.390031576,11.26391149,11.263911491278218
7.813604535,0.007178467698,11.11107159,-3.521636724,11.65580922,11.65580922220028
7.816110525,0.3664009571,11.48195934,-3.634099483,12.04891361,12.04891360244225
7.818616515,0.6942176819,11.86989594,-3.516851187,12.39937942,12.399379423495128
7.821122504,0.9936196208,12.09033489,-3.282354355,12.56731188,12.567311877047434
7.823628494,1.175474167,12.27936745,-3.105285645,12.7203539,12.72035390334903
7.826134483,1.275972724,12.38225937,-2.927917719,12.78753908,12.78753907785149
7.828640473,1.175474167,12.51386452,-2.808276415,12.87885713,12.87885713738779
7.831146463,0.8763712645,12.51386452,-2.530709028,12.79723876,12.797238764770972
7.833652452,0.3975076675,12.40140152,-2.13559413,12.59021582,12.590215816024363
7.836158442,-0.1363908947,12.37268734,-1.965703845,12.52860671,12.528606710077588
7.838664431,-0.7277171612,12.35354519,-2.059023857,12.54508789,12.545087894142961
7.841170421,-1.383649707,12.25543976,-1.879263043,12.47565308,12.475653081400415
7.84367641,-2.037488461,12.02542973,-1.43659091,12.28112832,12.281128322046417
7.8461824,-2.633600473,11.74786186,-0.9888339639,12.0799794,12.079979401521786
7.84868839,-3.102892876,11.54925728,-0.926620543,11.99466188,11.99466187728
7.851194379,-3.459423304,11.36231804,-1.151545882,11.93297694,11.932976944447638
7.853700369,-3.708575964,11.2067852,-1.357328653,11.88225195,11.882251944473841
7.856206358,-3.892823458,11.19960594,-1.637588024,11.96941696,11.9694169541706
7.858712348,-3.978965044,11.39103222,-1.915155411,12.21702083,12.217020835978573
7.861218338,-4.000500202,11.73829079,-2.137987137,12.58421477,12.584214776249583
7.863724327,-3.92392993,12.09990597,-2.171486616,12.90427467,12.90427466779356
7.866230317,-3.830610037,12.43729401,-2.001596212,13.16686154,13.166861544902787
7.868736306,-3.725325823,12.73190975,-1.905584097,13.40189648,13.401896474767852
7.871242296,-3.593421459,12.96162128,-1.946262121,13.59059382,13.590593814539154
7.873748285,-3.337389469,13.30170155,-2.193022013,13.88822444,13.888224441683217
7.876254275,-3.073879719,13.66301727,-2.427518606,14.21336076,14.213360757740372
7.878760265,-2.858525753,13.9552412,-2.566601276,14.47436937,14.474369365906982
7.881266254,-2.674278498,14.17538071,-2.51844573,14.64362498,14.643624983359159
7.883772244,-2.444268227,14.43410397,-2.317448616,14.82188829,14.821888296370735
7.886278233,-2.121237278,14.771492,-2.183450699,15.08191236,15.08191236052658
7.888784223,-1.704586983,15.14028645,-2.154736757,15.38755279,15.387552796420668
7.891290213,-1.199402332,15.71725559,-2.533101797,15.96519007,15.965190069315113
7.893796202,-0.818644464,16.43779373,-3.196212769,16.76564993,16.765649928743706
7.896302192,-0.6966105103,17.23280907,-4.074677944,17.72168093,17.72168093024628
7.898808181,-0.8644071817,18.10409546,-4.888835907,18.77248488,18.772484884163305
7.901314171,-1.237687469,18.91107559,-5.264508724,19.66915612,19.669156116790713
7.90382016,-1.783550143,19.5454731,-5.192724228,20.30199386,20.301993860788084
7.906326202,-2.394019127,20.03151512,-4.694717884,20.71311907,20.713119069651967
7.908832192,-3.042773008,20.27797508,-3.93828702,20.87977121,20.879771205049515
7.911338181,-3.612564087,20.22054863,-3.131606579,20.77806935,20.7780693507966
7.913844171,-3.878466368,20.06262207,-2.626421928,20.60216974,20.60216973610395
7.91635016,-3.897608995,19.74886322,-2.190629244,20.24864961,20.248649605463612
7.91885615,-3.651148319,19.43061638,-1.656730533,19.8399721,19.83997210212341
7.92136214,-3.222533941,19.13600159,-1.168295622,19.44058117,19.440581177366173
7.923868129,-2.700599432,18.87996864,-0.7731808424,19.08780401,19.087804005556965
7.926374119,-2.317448616,18.53988838,-0.5482555032,18.69220729,18.69220728879948
7.928880108,-2.059023857,18.25035667,-0.6391827464,18.37725911,18.377259110357127
7.931386098,-1.93190515,18.29582024,-0.926620543,18.42085561,18.420855609707708
7.933892088,-1.965703845,18.79113579,-1.225723386,18.9333878,18.93338780312319
7.936398077,-2.389233351,19.61964989,-1.556231976,19.82576495,19.825764948037506
7.938904067,-3.279961586,20.49123573,-1.812264085,20.83106313,20.831063123658502
7.941410056,-4.431507587,21.29313087,-2.140379906,21.85444824,21.854448240177422
7.943916046,-5.638088226,21.78395844,-2.475374937,22.63749909,22.637499094169716
7.946422035,-6.641279221,21.7791729,-2.896811008,22.95278797,22.95278797696373
7.948928025,-7.211070061,21.13998985,-3.691826344,22.63908753,22.639087526598903
7.951434015,-7.182356358,20.04347801,-5.001298428,21.87099082,21.870990822470112
7.953940004,-6.495316982,18.8368988,-6.552744865,20.97513682,20.975136813949103
7.956445994,-5.118546963,18.02273941,-8.132605553,20.42444447,20.424444470631023
7.958951983,-3.452244759,17.83370781,-9.530911446,20.5133469,20.513346901956094
7.961457973,-1.910369754,18.04666901,-10.08873844,20.76329497,20.76329497609245
7.963963963,-0.632004261,18.33410645,-9.47109127,20.64559174,20.645591746194246
7.966469952,0.3783650696,18.3532486,-8.15444088,20.08680662,20.086806624366915
7.968975942,1.26640141,17.94377708,-6.789634228,19.22711735,19.22711734446983
7.971481931,2.209771633,17.22802353,-5.664409637,18.26946693,18.269466931358004
7.973987921,3.334996462,16.57926941,-4.893621445,17.60516704,17.605167037488684
7.97649391,4.563112736,16.23918915,-4.450650215,17.44538762,17.445387626166486
7.9789999,5.779264927,16.10997772,-4.191926003,17.62111032,17.621110318307874
7.98150589,6.894918442,16.06212044,-4.302295208,18.00114878,18.0011487802217
7.984011879,7.888537884,15.99751472,-4.96779871,18.51562938,18.51562937593528
7.986517869,8.721838951,16.03340721,-6.171987057,19.26743485,19.267434849523596
7.989023858,9.200403214,16.05494308,-7.534101009,19.97927163,19.97927162376137
7.991529848,9.181260109,15.97568035,-8.522934914,20.30168267,20.301682673679316
7.994035838,8.673683167,15.86082458,-8.769695282,20.09243867,20.09243866179923
7.996541827,7.728219032,15.87278938,-8.367402077,19.53674051,19.536740506711748
7.999047817,6.507281303,16.19372559,-7.603792191,19.03678318,19.03678318741133
8.001553806,5.099404335,17.23998833,-6.796812534,19.22024409,19.22024408827038
8.004059796,3.248854876,18.30539322,-5.781657696,19.46972123,19.469721227019328
8.006565785,1.089332461,18.14955902,-5.242973328,18.92305227,18.923052268309444
8.009071775,-0.8715856671,14.62553024,-2.968595505,14.94919248,14.949192474797922
8.011577765,-1.007976532,8.927620888,0.6774678826,9.00984984,9.009849840084527
8.014083754,0.4405784607,3.526422262,1.864906192,4.013432254,4.013432253685356
8.016589744,2.743670225,-0.2464607358,0.4094717801,2.784984082,2.7849840819187617
8.019095733,5.556732178,-2.233700037,-1.97527504,6.306219139,6.306219139624107
8.021601775,8.654540062,-2.463410854,-4.022035599,9.856278561,9.856278561403958
8.024107765,11.69521999,-1.02711916,-5.324329376,12.89114532,12.891145321012841
8.026613754,14.32403469,1.730908036,-6.145665646,15.68257691,15.68257691394617
8.029119744,16.15065575,5.10897541,-6.825526714,18.2628893,18.26288930641919
8.031625733,16.97647858,8.443971634,-7.380960464,20.34649992,20.346499927607365
8.034131723,16.90708733,11.17807102,-7.658827305,21.66694508,21.666945086934245
8.036637713,16.04776382,13.00708485,-7.543672562,21.99140686,21.991406859050016
8.039143702,14.48913956,13.90020561,-6.622136593,21.14245904,21.14245903970922
8.041649692,12.20040417,13.71565914,-5.06111908,19.04164105,19.04164105054916
8.044155681,9.439984322,12.50189972,-3.85932374,16.13397596,16.13397596188458
8.046661671,6.504888535,10.62024403,-3.191427231,12.8564523,12.85645230537155
8.04916766,3.799503326,8.53729248,-2.729313374,9.735026447,9.73502644612971
8.05167365,1.505982757,6.631708145,-2.32701993,7.187667128,7.187667127758343
8.05417964,-0.1890329868,5.09461832,-2.106880426,5.516322546,5.516322545504396
8.056685629,-1.345364571,3.92392993,-2.133201361,4.664523552,4.664523552413908
8.059191619,-2.106880426,3.047558784,-2.300698996,4.361166764,4.36116676379073
8.061697608,-2.616850615,2.386840582,-2.458625317,4.311583648,4.311583648092813
8.064203598,-2.88006115,1.907976985,-2.561815739,4.30093342,4.300933420040018
8.066709588,-2.870489836,1.534696579,-2.59052968,4.160029989,4.1600299892109565
8.069215577,-2.580958366,1.280758262,-2.561815739,3.85546206,3.855462059636272
8.071721567,-1.987239242,1.208973646,-2.494517565,3.410770435,3.4107704355117185
8.074227556,-1.1395818,1.31425786,-2.384447813,2.951527024,2.95152702416622
8.076733546,-0.1268195957,1.570588946,-2.274377823,2.766880433,2.7668804327084904
8.079239535,1.012762189,1.936690807,-2.233700037,3.125039902,3.1250399019340835
8.081745525,2.145165443,2.312663078,-2.305484533,3.907096649,3.907096648675081
8.084251515,3.162713289,2.616850615,-2.420340061,4.765365516,4.765365515941517
8.086757504,4.01964283,2.853740215,-2.588136673,5.567747582,5.567747581707181
8.089263494,4.704289436,2.987738132,-2.813062191,6.242614608,6.242614607157947
8.091769483,5.183153152,3.033201694,-3.030808926,6.726900614,6.726900613171959
8.094275473,5.484947681,3.049951553,-3.184248686,7.037492113,7.037492112482053
8.096781463,5.654838085,3.066701412,-3.311068296,7.23498615,7.2349861491716485
8.099287452,5.724229813,3.047558784,-3.3852458,7.315347608,7.315347607625438
8.101793442,5.681159019,2.994916677,-3.413959742,7.273253387,7.2732533863006905
8.104299431,5.556732178,2.963809967,-3.41635251,7.164698632,7.164698632258894
8.106805421,5.355735302,2.908775091,-3.363710403,6.961280115,6.961280114344021
8.10931141,5.101797104,2.805883646,-3.260818958,6.673399209,6.6733992089582985
8.1118174,4.910371304,2.73649168,-3.131606579,6.434834327,6.434834327586994
8.114323338,4.768895626,2.679064035,-3.018844843,6.247653462,6.247653462014367
8.116829379,4.639683247,2.616850615,-2.951845884,6.089988661,6.089988661451356
8.119335421,4.510470867,2.571387053,-2.865704298,5.930315332,5.930315332422672
8.12184141,4.402793884,2.573779821,-2.798705101,5.81736081,5.8173608100527865
8.1243474,4.299902439,2.578565598,-2.707777977,5.69826492,5.698264920204523
8.12685339,4.172783375,2.554637194,-2.691028118,5.583898693,5.583898693521508
8.129359379,4.060320854,2.528316259,-2.724527597,5.504692469,5.504692468227961
8.131865369,3.971786499,2.523231506,-2.746062994,5.448178337,5.448178337162427
8.134371358,3.866502285,2.520838737,-2.698206663,5.346474264,5.346474263860958
8.136877348,3.770789385,2.554637194,-2.585743904,5.237470316,5.237470316485816
8.139383338,3.634099483,2.612065077,-2.50169611,5.127186992,5.1271869914811
8.141889327,3.492922783,2.635993242,-2.410768747,4.99607605,4.9960760493993766
8.144395317,3.375674486,2.714956284,-2.355733871,4.931089933,4.931089933314855
8.146901306,3.277568817,2.779562712,-2.303091764,4.875721269,4.875721269055093
8.149407296,3.239283562,2.856132984,-2.298306227,4.892102322,4.892102322151809
8.151913285,3.198605776,2.944667339,-2.315055847,4.925609427,4.925609426493618
8.154419275,3.19382,2.959024191,-2.23130703,4.892345185,4.892345185843966
8.156925265,3.284747362,3.030808926,-2.190629244,4.97737124,4.977371240198509
8.159431254,3.509672642,3.143570662,-2.221735716,5.209217614,5.209217614262281
8.161937244,3.801896095,3.284747362,-2.264806747,5.511200301,5.511200300351906
8.164443233,4.065106392,3.44985199,-2.35812664,5.829865348,5.829865348484809
8.166949223,4.223331928,3.571886063,-2.499303341,6.069713322,6.069713322015431
8.169455213,4.249652863,3.629313707,-2.631207705,6.176950819,6.17695081951229
8.171961202,4.203890324,3.672683716,-2.647957325,6.178428402,6.178428402839476
8.174467192,4.074677944,3.636492252,-2.463410854,5.991282775,5.991282774313119
8.176973181,3.878466368,3.543172121,-2.147558212,5.675260022,5.675260022295665
8.179479171,3.742075443,3.490530014,-1.857727647,5.444086738,5.444086737935633
8.18198516,3.677469254,3.483351469,-1.630409479,5.321254799,5.3212547993788855
8.18449115,3.66789794,3.54556489,-1.491625786,5.315021465,5.315021464953559
8.18699714,3.701397419,3.646063566,-1.438983679,5.391177646,5.391177645850753
8.189503077,3.787539244,3.761218071,-1.489233017,5.541663097,5.541663097065715
8.192009119,3.883252144,3.813860178,-1.570588946,5.664973637,5.66497363705359
8.194515108,3.95503664,3.837788343,-1.66151619,5.756002974,5.7560029742036525
8.197021098,4.026821613,3.84257412,-1.824228168,5.857343816,5.857343816060514
8.19952714,4.093820572,3.90478754,-1.953440547,5.985203637,5.985203637215139
8.202033129,4.151247978,3.993321896,-2.047059774,6.113095227,6.113095227317423
8.204539119,4.206283092,4.089034557,-2.123630047,6.238816045,6.238816044323352
8.207045108,4.326223373,4.208974838,-2.250449657,6.441754538,6.44175453729029
8.209551098,4.409972191,4.278367043,-2.279163599,6.553385841,6.553385841763671
8.212057088,4.438685894,4.290330887,-2.176272154,6.545611665,6.545611665369141
8.214563077,4.536791801,4.316651821,-2.126022816,6.613315039,6.6133150388829955
8.217069067,4.694717884,4.441078663,-2.164308071,6.815261193,6.815261192903692
8.219575056,4.881657124,4.622933388,-2.216950178,7.079333123,7.0793331238132415
8.222081046,5.087440014,4.907978535,-2.360519648,7.452674164,7.452674164664862
8.224587035,5.257330418,5.214259624,-2.480160713,7.808919497,7.808919497140007
8.227093025,5.37487793,5.561518192,-2.508874655,8.131066928,8.131066928567826
8.229599015,5.50169754,5.949454308,-2.566601276,8.500124969,8.500124969351136
8.232105004,5.595017433,6.262914181,-2.628814697,8.799942092,8.799942092156517
8.234610994,5.654838085,6.449554443,-2.717349291,8.997662666,8.997662665941956
8.237116983,5.731408596,6.502495766,-2.892025232,9.137576573,9.137576572794083
8.239622973,5.779264927,6.504888535,-3.045166016,9.218813048,9.218813048013722
8.242128963,5.80797863,6.607779503,-3.124428272,9.335813717,9.335813716740308
8.244634952,5.793622017,6.789634228,-3.078665495,9.441576682,9.441576682736835
8.247140942,5.786443233,7.067500591,-2.908775091,9.586107783,9.586107782752023
8.249646931,5.805585861,7.390532017,-2.717349291,9.783086315,9.783086315322144
8.252152921,5.846263885,7.716254711,-2.604886532,10.02520933,10.025209325629065
8.25465891,5.939883232,8.032107353,-2.533101797,10.30599661,10.305996606533308
8.2571649,6.05713129,8.362615585,-2.616850615,10.65223385,10.652233851545311
8.25967089,6.191129684,8.709874153,-2.714956284,11.0255604,11.025560400688688
8.262176879,6.353841305,9.087940216,-2.848954439,11.44895183,11.44895183386724
8.264682869,6.555137634,9.478269577,-2.956631422,11.8974406,11.897440604622687
8.267188858,6.811169624,9.897313118,-3.090928555,12.40575181,12.405751808526139
8.269694848,7.072286606,10.27537823,-3.267997503,12.89497744,12.894977444205908
8.272200838,7.333104134,10.61306572,-3.478565931,13.36083834,13.36083834021806
8.274706879,7.574779034,10.91456127,-3.725325823,13.79793382,13.797933816989435
8.277212869,7.79761076,11.17807102,-3.914358854,14.18006384,14.18006384084782
8.279718858,8.010572433,11.44128132,-4.045963764,14.54104576,14.541045757692999
8.282224848,8.214261055,11.69282722,-4.069892406,14.85800516,14.858005157923424
8.284730838,8.400900841,11.92971611,-3.983750582,15.12493075,15.12493074711727
8.287236827,8.520542145,12.14536953,-3.883252144,15.33588232,15.335882324758957
8.289742817,8.623434067,12.37747288,-3.806681633,15.55815783,15.55815782983484
8.292248806,8.671290398,12.63141155,-3.77796793,15.78026859,15.780268584280462
8.294754796,8.68803978,12.8754797,-3.770789385,15.98370624,15.983706244485452
8.297260785,8.654540062,13.06211948,-3.785146236,16.11978167,16.119781667952683
8.299766775,8.589934349,13.24666595,-3.806681633,16.24044199,16.24044198801372
8.302272765,8.467900276,13.56491184,-3.861716747,16.45068462,16.450684622389225
8.304778754,8.343473434,13.86670589,-3.947858334,16.65787101,16.657871010695146
8.307284744,8.214261055,14.11077404,-4.079463482,16.82944001,16.829440008170184
8.309790733,8.044071198,14.41017628,-4.249652863,17.04170799,17.04170799289707
8.312296723,7.871788502,14.68056488,-4.462614059,17.24525916,17.245259164642707
8.314802713,7.711469173,14.87468243,-4.713860512,17.40526975,17.40526975160319
8.317308702,7.562815189,14.93450356,-5.015655518,17.47547912,17.47547911909329
8.319814692,7.407281399,14.88186169,-5.31715107,17.45307195,17.453071952681086
8.322320681,7.258926392,14.7643137,-5.561518192,17.36684934,17.366849339947326
8.324826671,7.038786888,14.57528114,-5.685945034,17.15556214,17.155562132859117
8.32733266,6.801598549,14.38624763,-5.721837044,16.91050806,16.910508060124336
8.32983865,6.591030121,14.23759365,-5.664409637,16.68041629,16.68041628779654
8.33234464,6.39212656,14.11555958,-5.55194664,16.46002478,16.460024778504877
8.334850629,6.195915222,14.00309753,-5.341378212,16.2174729,16.21747289427461
8.337356619,5.999703884,13.83320713,-5.085047245,15.91262931,15.912629313883032
8.339862608,5.75772953,13.56491184,-4.670789719,15.458802,15.458801996491264
8.342368598,5.525625706,13.18684578,-4.091427803,14.87162474,14.87162474430663
8.344874588,5.312365532,12.68883896,-3.433102369,14.1779425,14.177942501450234
8.347380629,5.204688549,12.09272766,-2.738884687,13.44709391,13.44709390462132
8.349886619,5.228616714,11.44367409,-2.147558212,12.76354636,12.763546360396319
8.352392608,5.382056236,10.77817059,-1.714158297,12.16855904,12.16855904623803
8.354898598,5.609374523,10.11745262,-1.381256819,11.65057082,11.650570821091142
8.357404588,5.896812439,9.485447884,-1.168295622,11.22991688,11.229916881313484
8.359910577,6.227021694,8.882157326,-1.082154036,10.90135658,10.90135658067349
8.362416567,6.559923172,8.286046028,-1.067797065,10.62220982,10.622209815885757
8.364922556,6.866204739,7.766504288,-1.01036942,10.41557501,10.415575007567252
8.367428546,7.24217701,7.41924572,-0.8668000102,10.40411828,10.404118278623786
8.369934535,7.65404129,7.208677292,-0.7037889361,10.53777468,10.53777468139256
8.372440525,8.08953476,7.117750168,-0.6511468887,10.79476412,10.794764117755236
8.374946515,8.570791245,7.218248844,-0.6726822853,11.22559933,11.225599333498074
8.377452504,9.028120041,7.479066372,-0.9074779749,11.75869472,11.758694721201655
8.379958494,9.408877373,7.843074322,-1.494018674,12.33988979,12.339889790384184
8.382464483,9.645767212,8.108677864,-2.370090723,12.82219996,12.822199961218377
8.384970473,9.691230774,8.250153542,-3.363710403,13.16432813,13.164328127813823
8.387476463,9.478269577,8.190332413,-4.321437836,13.25118727,13.251187274359024
8.389982452,9.035298347,7.953144073,-5.087440014,13.06794409,13.067944090837099
8.392488442,8.441578865,7.610970497,-5.56630373,12.65586279,12.655862785872445
8.394994431,7.833503246,7.273283482,-5.604588985,12.06962482,12.069624824550676
8.397500421,7.376174927,6.959524632,-5.226223946,11.40860887,11.408608871850328
8.40000641,7.175177574,6.775277138,-4.503292084,10.847451,10.847450995923193
8.4025124,7.239784241,6.667600155,-3.588635683,10.47614785,10.476147848731845
8.40501839,7.579864025,6.610172749,-2.664707184,10.40429655,10.40429655409594
8.407524379,8.053643227,6.550352097,-1.888834357,10.55158647,10.551586470794753
8.410030369,8.503792763,6.483353138,-1.338186026,10.77678529,10.776785286357304
8.41253641,8.882157326,6.380162239,-1.046261668,10.98607539,10.986075388313294
8.4150424,9.097511292,6.334698677,-0.9888339639,11.12973098,11.129730978088162
8.41754839,9.416056633,7.474280834,-1.556231976,12.12224626,12.122246263151393
8.420054379,9.538089752,11.27139091,-2.248056889,14.9356342,14.935634199437878
8.422560369,8.005785942,16.62473297,-1.503589988,18.51310719,18.513107187205062
8.425066358,5.039583683,16.9549427,-3.165106058,17.96901172,17.969011715078587
8.427572348,3.689433336,15.61915016,-4.879264355,16.77429554,16.77429553535378
8.430078338,4.800301552,15.88953876,-5.575874805,17.51030317,17.510303162330164
8.432584327,6.899703979,16.9046936,-7.742575645,19.83234879,19.832348784908373
8.435090317,8.137690544,18.82014847,-9.839884758,22.74298414,22.742984146181676
8.437596306,7.749754429,21.66431618,-10.76620674,25.40300173,25.40300172863901
8.440102296,5.55194664,24.98974228,-9.337093353,27.24871819,27.248718189978472
8.442608285,1.850549221,28.84876633,-5.884549141,29.50091134,29.500911338043935
8.445114275,-3.373281717,31.74587631,-1.02711916,31.94111248,31.941112472813227
8.447620265,-9.952347755,32.50230789,4.503292084,34.28890322,34.288903213818706
8.450126254,-17.46969986,30.73789978,10.42403316,36.86013244,36.86013243878252
8.452632244,-24.84108734,26.79722023,16.10040665,39.92986009,39.92986008720784
8.455138233,-30.15853882,21.4343071,20.36411667,42.23344921,42.233449212252715
8.457644223,-32.26781082,15.19053555,20.93151474,41.3532622,41.35326220169287
8.460150213,-30.70918655,8.604290962,16.84247971,36.0660101,36.066010096810224
8.462656202,-25.49941444,2.836990356,9.25783062,27.2759249,27.27592489452057
8.465162192,-18.61645889,-0.97926265,0.5865406394,18.65142158,18.651421577520917
8.467668181,-11.99671555,-2.271985054,-7.101000309,14.1247055,14.124705499996425
8.470174171,-6.600601196,-0.555433929,-12.84915829,14.45604758,14.45604758430176
8.47268016,-3.069094181,2.781955481,-15.35564041,15.90453733,15.90453733345736
8.475186202,-0.9218349457,6.451947212,-14.74038601,16.11695946,16.11695945944371
8.477692192,0.6415755749,9.411270142,-12.02542973,15.28380139,15.283801395437486
8.480198181,2.367697954,11.11107159,-7.991429329,13.88973895,13.889738953626244
8.482704171,4.582255363,11.65693474,-3.883252144,13.11338396,13.11338396289233
8.48521016,7.158428192,11.53011513,-0.8258228898,13.59664049,13.596640487134788
8.48771615,9.597910881,11.06082249,1.098903775,14.68568272,14.685682719629254
8.49022214,11.66172028,10.39292622,1.984846354,15.7463726,15.746372609344473
8.492728129,13.32562923,9.851848602,1.714158297,16.66042178,16.660421780955417
8.495234119,14.46760368,9.420842171,0.5817549825,17.27432379,17.274323787404967
8.497740108,15.2096777,9.090332985,-1.046261668,17.75001726,17.750017267427726
8.500246098,15.60957813,8.886942863,-2.643171787,18.15552368,18.155523675796125
8.502752088,15.73639774,8.822337151,-3.775574923,18.43157109,18.431571084326436
8.505258077,15.73879051,8.915657043,-4.419543266,18.62070971,18.620709704683854
8.507764067,15.41546059,9.262915611,-4.134498596,18.45351211,18.4535121171737
8.510270056,14.9464674,9.123832703,-3.509672642,17.85942365,17.859423646512177
8.512776046,14.63270855,8.38175869,-4.292723656,17.40107797,17.40107797331578
8.515282035,14.12991714,7.120142937,-5.355735302,16.7043376,16.704337593920503
8.517788025,13.71326637,5.738586903,-6.152844429,16.08858443,16.088584423290087
8.520294015,13.71565914,4.79073,-7.158428192,16.19609502,16.19609501570011
8.522800004,13.86670589,4.572684288,-8.144868851,16.71926621,16.71926620511417
8.525305994,13.69651699,5.149653435,-8.580363274,16.96278698,16.962786978317386
8.527811983,13.24188042,6.219843388,-8.585148811,16.96286028,16.962860281681312
8.530317973,12.62662601,7.481459141,-8.384151459,16.90260072,16.902600715934597
8.532823963,11.92493057,8.618648529,-8.262117386,16.87446756,16.874467555031117
8.535329952,11.28814125,9.463912964,-8.388936996,16.95175641,16.951756410265467
8.537835942,10.76859951,9.990633011,-8.568398476,17.00567364,17.00567363590088
8.540341983,10.41446114,10.40489006,-8.621041298,17.0600437,17.06004370038595
8.542847973,10.10548782,10.6298151,-8.326724052,16.8655918,16.865591794494247
8.545353963,9.753444672,10.69442177,-7.661220074,16.37664901,16.376649015799163
8.547859952,9.392127991,10.6298151,-6.744170666,15.70633233,15.706332329084617
8.550365942,9.03051281,10.51735306,-5.769693375,15.01513365,15.015133653810222
8.552871931,8.702695847,10.43121147,-4.979763031,14.46876386,14.468763858124332
8.555377921,8.329116821,10.39053345,-4.311866283,13.99748417,13.997484175233286
8.55788391,7.847859859,10.25145054,-3.626920938,13.41028329,13.410283294213906
8.5603899,7.223034382,10.00020409,-2.887239695,12.66935123,12.669351229703539
8.56289589,6.432804585,9.662516594,-2.169093609,11.8089021,11.80890210149644
8.565401879,5.408377171,9.289237022,-1.525125384,10.85663279,10.856632788835151
8.567907869,4.345366001,8.963513374,-1.141974568,10.02650904,10.026509043654345
8.570413858,3.373281717,8.700303078,-1.05822587,9.391173791,9.391173791557687
8.572919848,2.520838737,8.613862038,-1.369292736,9.078998279,9.078998278693506
8.575425838,1.764407635,8.6090765,-1.752443433,8.961048514,8.961048514050317
8.577931827,1.127617717,8.66650486,-2.221735716,9.017535018,9.01753501772219
8.580437817,0.6463612318,8.786444664,-2.748456001,9.228943768,9.228943767568476
8.582943806,0.3520440459,8.898907661,-3.234498024,9.475044593,9.475044592851162
8.585449796,0.1746760458,8.968298912,-3.653541088,9.685518034,9.685518033521022
8.587955785,0.06460621208,9.061619759,-3.878466368,9.856958353,9.856958353723812
8.590461775,0.05742774159,9.238688469,-3.852145433,10.00977957,10.009779568488032
8.592967765,0.2033899277,9.39452076,-3.754039526,10.11885372,10.118853716480494
8.595473754,0.4692923427,9.47109127,-3.543172121,10.12303679,10.123036788761498
8.597979796,0.8500502706,9.516554832,-3.428316593,10.15089927,10.150899270254277
8.600485785,1.244866014,9.506983757,-3.672683716,10.26747472,10.267474724899285
8.602991775,1.690230131,9.57158947,-4.062713623,10.53460226,10.534602263990081
8.605497765,2.226521492,9.67926693,-4.491328239,10.90035025,10.900350251573037
8.608003754,2.848954439,9.767801285,-4.922335148,11.30291408,11.302914077704989
8.610509744,3.509672642,9.8638134,-5.216652393,11.69726802,11.697268015798196
8.613015733,4.069892406,9.899705887,-5.04676199,11.83376556,11.833765564233039
8.615521723,4.673182487,9.978668213,-4.630111694,11.95200352,11.952003520784944
8.618027713,5.334199905,10.11027431,-4.295116425,12.21144383,12.211443827584548
8.620533702,5.951847076,10.23709393,-3.967000723,12.48838142,12.488381419704282
8.623039692,6.37776947,10.41446114,-3.758825302,12.77754718,12.77754717854681
8.625545681,6.550352097,10.43121147,-3.512065411,12.80827423,12.8082742310459
8.628051671,6.562315941,10.44796085,-3.457030535,12.81307678,12.813076779312524
8.63055766,6.404090881,10.45274639,-3.569493294,12.76767675,12.76767674566036
8.63306365,6.128916264,10.43121147,-3.787539244,12.67750925,12.677509251734875
8.63556964,5.740979671,10.31844902,-3.87368083,12.42717349,12.427173489329089
8.638075629,5.271687508,10.19402313,-4.041178226,12.16716558,12.167165578361905
8.640581619,4.721039295,9.904491425,-3.962215185,11.66560378,11.665603781419854
8.643087608,4.127319813,9.540482521,-3.782753468,11.06186238,11.061862382616901
8.645593598,3.612564087,9.260522842,-3.533600807,10.54960839,10.549608393353612
8.648099588,3.284747362,9.150154114,-3.275176048,10.25873597,10.258735969285397
8.650605525,3.136392355,9.056833267,-3.037987471,10.05447929,10.054479285606655
8.653111567,3.073879719,8.992227554,-2.94227457,9.948159255,9.948159254609116
8.655617608,3.181855917,8.977870941,-2.980559587,9.980486419,9.980486419080874
8.658123598,3.409173965,8.994620323,-3.299104214,10.16905849,10.169058486083705
8.660629588,3.665505171,8.992227554,-3.689433336,10.38787769,10.387877689034111
8.663135577,3.888037682,9.018548965,-4.148855209,10.66133491,10.661334906849188
8.665641567,4.110570431,9.044869423,-4.532006264,10.9199603,10.919960298658008
8.668147556,4.266402721,9.114261627,-4.788337231,11.14451123,11.144511232931736
8.670653546,4.321437836,9.202795982,-4.953442097,11.30941499,11.309414992167344
8.673159535,4.165605068,9.226723671,-4.850550652,11.22553058,11.225530584839035
8.675665525,3.840181351,9.20758152,-4.613361835,10.99134467,10.991344670996732
8.678171515,3.409173965,9.253045082,-4.345366001,10.77606218,10.776062179470056
8.680677504,2.925524712,9.332307816,-4.081856251,10.59774573,10.597745725715688
8.683183494,2.315055847,9.202795982,-3.727718592,10.19543149,10.195431494654196
8.685689483,1.67587316,9.032905579,-3.349353552,9.778553229,9.778553229585281
8.688195473,1.173081279,8.90130043,-3.136392355,9.510322079,9.510322078497705
8.690701463,0.8066803217,8.796015739,-3.016452074,9.333788574,9.333788573612145
8.693207452,0.5386841893,8.757730484,-2.920739174,9.247634357,9.247634357430167
8.695713442,0.3927220106,8.748159409,-2.839383125,9.20579275,9.20579274986243
8.698219431,0.3544368446,8.839086533,-2.767598391,9.269017049,9.269017049749005
8.700725421,0.4788636267,9.025727272,-2.836990356,9.473203125,9.4732031246848
8.70323141,0.7037889361,9.214759827,-2.968595505,9.70668207,9.706682070006003
8.7057374,0.9625129104,9.435198784,-3.069094181,9.968387346,9.96838734641315
8.708243442,1.192223907,9.566803932,-3.102892876,10.12783686,10.12783686271084
8.710749431,1.369292736,9.67926693,-3.107678413,10.2577208,10.257720800337676
8.713255421,1.517946839,9.700801849,-3.033201694,10.27667415,10.276674152471527
8.71576141,1.663909078,9.643374443,-2.963809967,10.22484394,10.224843939554527
8.7182674,1.764407635,9.595518112,-2.97577405,10.20011438,10.200114378614574
8.72077339,1.843370795,9.569196701,-2.894418001,10.16588397,10.16588397311326
8.723279379,1.864906192,9.55005455,-2.777169704,10.11899642,10.118996421471405
8.725785369,1.888834357,9.593125343,-2.667099953,10.13455333,10.13455333174507
8.728291358,1.876870275,9.633803368,-2.662314177,10.16959813,10.169598130679594
8.730797348,1.821835399,9.640981674,-2.738884687,10.18671199,10.186711991027156
8.733303338,1.80508554,9.729516029,-2.944667339,10.32438287,10.324382872726988
8.735809327,1.769193292,9.904491425,-3.220141172,10.56400987,10.564009866521607
8.738315317,1.639980793,9.966704369,-3.181855917,10.59003966,10.590039662673625
8.740821306,1.407876968,9.676874161,-2.717349291,10.1492856,10.14928560314235
8.743327296,1.192223907,9.303593636,-2.346162558,9.668646809,9.66864681001448
8.745833285,1.02711916,8.98026371,-2.32701993,9.333548726,9.333548726213373
8.748339275,0.9888339639,8.805587769,-2.398804665,9.17989283,9.179892830885901
8.750845265,1.041476011,8.824729919,-2.619243383,9.263960618,9.263960617585305
8.753351254,1.18743825,9.052047729,-3.040380239,9.622551101,9.62255110058444
8.755857244,1.247258782,9.389735222,-3.607778311,10.13601728,10.136017282437196
8.758363233,1.146760225,9.602696419,-3.85932374,10.41255095,10.412550948698646
8.760869275,0.9768698215,9.782157898,-3.897608995,10.57526565,10.575265654699466
8.763375265,0.7205387354,9.844670296,-3.648755312,10.52378851,10.523788511415686
8.765881254,0.4142574072,9.88534832,-3.172284603,10.39014486,10.39014485989381
8.768387244,0.09810572863,9.873384476,-2.604886532,10.21169817,10.211698173639036
8.770893233,-0.2009970993,9.767801285,-2.030309916,9.978602113,9.978602113131005
8.773399223,-0.4477569461,9.612267494,-1.563410521,9.748867889,9.748867888948096
8.775905213,-0.6678966284,9.569196701,-1.51555407,9.7114631,9.711463100262026
8.778411202,-0.8258228898,9.485447884,-1.747657895,9.680393231,9.680393231855486
8.780917192,-0.9170492887,9.286844254,-1.963011861,9.536239885,9.536239885950051
8.783423181,-0.926620543,9.142974854,-2.334198475,9.481618919,9.481618919376492
8.785929171,-0.8428717852,8.994620323,-2.542673111,9.385031388,9.385031387833141
8.78843516,-0.6224330068,8.95154953,-2.561815739,9.331696615,9.331696615116964
8.79094115,-0.3424727321,8.982656479,-2.458625317,9.319347801,9.319347801286636
8.79344714,-0.02871387079,9.061619759,-2.283949137,9.34506291,9.345062910621737
8.795953129,0.2775674164,9.217152596,-2.221735716,9.485201908,9.485201908254064
8.798459119,0.5003990531,9.337093353,-2.312663078,9.632243872,9.632243871877652
8.800965108,0.6367899179,9.375378609,-2.355733871,9.687760708,9.687760707852487
8.803471098,0.6870391965,9.377771378,-2.389233351,9.70170371,9.701703710230182
8.805977088,0.608076036,9.31555748,-2.413161755,9.642236114,9.642236114332407
8.808483077,0.4645066857,9.212367058,-2.271985054,9.499757331,9.499757331531315
8.810989067,0.3664009571,9.190832138,-2.078166485,9.429974602,9.429974601749185
8.813495108,0.2177468538,9.147761345,-1.872084618,9.339895724,9.33989572395582
8.816001098,0.1363908947,9.092725754,-1.812264085,9.272570583,9.272570583575668
8.818507088,0.1076770201,9.131011009,-2.011167526,9.350494704,9.350494703745559
8.821013077,0.1100698411,9.245866776,-2.200200319,9.504685647,9.504685647257784
8.823519067,0.1459621787,9.437591553,-2.480160713,9.759130926,9.759130926531137
8.826025056,0.1866401732,9.406484604,-2.40598321,9.711104075,9.711104075559229
8.828531046,0.2632105052,9.497411728,-2.441875458,9.809835118,9.809835118572702
8.831037035,0.3568296731,9.741479874,-2.822633505,10.14844902,10.148449017199637
8.833543025,0.36161533,10.00259686,-2.908775091,10.423228,10.423228008663868
8.836049015,0.3496512175,10.11984539,-2.65513587,10.46820296,10.468202958462554
8.838555004,0.3352942765,10.11505985,-2.449054003,10.41271932,10.41271931488341
8.841060994,0.3352942765,10.04327488,-2.343769789,10.31857788,10.318577876380145
8.843566983,0.399900496,10.02173901,-2.482553482,10.33238815,10.33238815483851
8.846072973,0.4692923427,10.0145607,-2.57617259,10.35124758,10.351247583280417
8.848578963,0.4716851711,10.12463093,-2.863311291,10.53229272,10.532292718991263
8.851084952,0.3927220106,10.09352398,-2.841775894,10.49329058,10.493290577514962
8.853590942,0.2608176768,9.957133293,-2.566601276,10.28591131,10.285911305521996
8.856096931,0.05024927482,9.870991707,-2.48733902,10.17967866,10.179678662398793
8.858602973,-0.1722832322,9.978668213,-2.659921408,10.3285373,10.328537297893183
8.861108963,-0.399900496,10.18205833,-2.786741018,10.56409759,10.56409758302275
8.863614952,-0.6822535396,10.32802105,-2.609672308,10.67444979,10.674449787070145
8.866120942,-0.9888339639,10.44317532,-2.482553482,10.77964633,10.779646337584996
8.868626931,-1.271187067,10.579566,-2.566601276,10.96040946,10.960409454834654
8.871132921,-1.462911963,10.85234833,-2.793919563,11.30130798,11.301307986762259
8.87363891,-1.59691,11.11825085,-3.057130098,11.64094789,11.640947897303004
8.8761449,-1.72372961,11.2570343,-2.872882605,11.74502105,11.745021049869552
8.87865089,-1.802692771,11.40538883,-2.676671267,11.85314999,11.85314998899819
8.881156879,-1.769193292,11.63061333,-2.853740215,12.10557906,12.105579067154935
8.883662869,-1.683051586,11.81964684,-2.901596546,12.2864143,12.286414309277474
8.886168858,-1.599302888,11.96082306,-2.700599432,12.36577112,12.365771115960039
8.888674848,-1.5011971,12.09512043,-2.252842426,12.39438703,12.394387033880996
8.891180838,-1.41984117,12.20758247,-1.994417667,12.45065141,12.450651410280509
8.893686827,-1.36211431,12.29133129,-1.687837243,12.48122489,12.48122489313039
8.896192817,-1.302293777,12.24347496,-1.304686546,12.38147225,12.381472253374126
8.898698806,-1.206580877,12.15254784,-0.9481559992,12.24905123,12.24905123734282
8.901204796,-1.079761267,12.07358456,-0.8811569214,12.15375522,12.153755223852214
8.903710838,-0.9481559992,12.01346493,-0.8620143533,12.08161447,12.081614468623556
8.906216827,-0.8859425783,11.85793209,-0.6343970895,11.90789265,11.907892650266156
8.908722817,-0.8401798606,11.83161068,-0.579362154,11.87554521,11.875545207978261
8.911228806,-0.8138588071,11.89143085,-0.5889334679,11.9337897,11.933789693464465
8.913734796,-0.8138588071,12.00628662,-0.6056832075,12.04907203,12.049072026813215
8.916240785,-0.8524430394,12.15972614,-0.7301099896,12.21141514,12.211415132249599
8.918746775,-0.8955138922,12.43968678,-1.096511006,12.51998756,12.519987567961445
8.921252765,-0.9720842242,12.71516037,-1.254437327,12.81381536,12.813815356135265
8.923758754,-1.10608232,12.96162128,-1.21854496,13.06567626,13.06567625973898
8.926264744,-1.240080357,13.2705946,-1.273579836,13.38911819,13.38911819083065
8.928770733,-1.45334065,13.45484161,-1.319043517,13.5972364,13.597236395491166
8.931276723,-1.75722909,13.55773354,-1.527518153,13.75620967,13.756209671422129
8.933782713,-2.008774519,13.65583897,-1.977667928,13.94375428,13.943754281978515
8.936288702,-2.260020971,13.70848083,-2.458625317,14.10939333,14.109393321657405
8.938794692,-2.552244425,13.73719501,-2.81545496,14.25311423,14.25311422039061
8.941300681,-2.758027315,13.86431313,-3.057130098,14.46277766,14.462777661053702
8.943806671,-2.925524712,13.98395443,-3.136392355,14.62691469,14.626914689890748
8.94631266,-3.064308405,14.19452286,-3.133999348,14.85585464,14.855854641766008
8.94881865,-3.061915636,14.47238922,-3.145963669,15.12357314,15.123573139434392
8.951324692,-2.961417198,15.03739452,-3.574278831,15.73749329,15.73749328617715
8.953830681,-2.932703257,15.87757492,-4.431507587,16.74324918,16.74324918369998
8.956336671,-3.066701412,16.88315773,-5.420341492,17.99515975,17.995159748563456
8.95884266,-3.421138287,18.07538223,-6.155237198,19.39872612,19.398726115470055
8.96134865,-4.096213341,19.0378952,-6.317949295,20.47283324,20.472833235176818
8.96385464,-4.893621445,19.71536255,-5.956633091,21.16895201,21.16895200773299
8.966360629,-5.688337803,20.06262207,-5.180759907,21.48735127,21.487351267633443
8.968866619,-6.277271271,20.08415604,-4.203890324,21.45810225,21.45810225311202
8.971372608,-6.524031162,19.98365784,-3.296711445,21.27857771,21.278577716110036
8.973878598,-6.478567123,19.78714752,-2.432304144,20.96232674,20.962326740950733
8.976384588,-6.267699718,19.46650887,-1.613659739,20.51421275,20.514212758331123
8.978890577,-5.999703884,19.06421661,-1.053440213,20.01375872,20.013758715719796
8.981396567,-5.666802406,18.68824387,-0.8428717852,19.54670154,19.546701545261445
8.983902556,-5.274080276,18.31735611,-0.9290133715,19.08414325,19.084143246755207
8.986408546,-4.896014214,18.09452438,-1.340578914,18.7930817,18.793081693718193
8.988914535,-4.675575256,17.9078846,-2.080559254,18.62477011,18.624770109476295
8.991420525,-4.517649174,17.90309906,-2.925524712,18.69461968,18.694619676581773
8.993926515,-4.517649174,18.25992775,-3.550350666,19.14259923,19.14259923171693
8.996432556,-4.761716843,19.04028893,-3.883252144,20.00715364,20.00715364675023
8.998938546,-5.197509766,20.13201332,-3.816252947,21.13943837,21.139438370964566
9.001444535,-5.767300606,21.21656036,-3.270390272,22.22835222,22.228352217847448
9.003950525,-6.451947212,21.93709946,-2.384447813,22.99020545,22.99020545617823
9.006456515,-6.973881721,22.03759766,-1.465304732,23.1611281,23.16112809947212
9.008962504,-7.110571384,21.38884354,-1.077368379,22.56553957,22.565539568324716
9.011468494,-6.507281303,20.17508507,-1.831406593,21.27751907,21.277519067010473
9.013974483,-5.056333542,18.94218254,-3.916751623,19.99284201,19.992842007651348
9.016480473,-3.162713289,18.46092606,-6.595815659,19.85732435,19.85732435522757
9.018986463,-1.556231976,18.64517403,-8.884550095,20.71230559,20.712305592634436
9.021492452,-0.5003990531,19.03071594,-9.971489906,21.4906761,21.49067610259792
9.023998442,0.2057827413,19.25325012,-9.784550667,21.5978568,21.597856802816967
9.026504431,0.7468597889,19.21496391,-8.965906143,21.21697695,21.216976942344154
9.029010421,1.144367456,18.87757683,-8.152048111,20.5943772,20.594377199880636
9.03151641,1.335793257,18.1591301,-7.500601768,19.6925716,19.692571606986665
9.0340224,1.415055513,17.06501198,-6.832705021,18.43645502,18.436455024933995
9.03652839,1.728515267,15.94935894,-5.985346794,17.12291423,17.1229142341383
9.039034379,2.463410854,15.08764362,-5.216652393,16.15298255,16.152982549025563
9.041540421,3.533600807,14.55374527,-4.948656559,15.77298443,15.772984428642925
9.04404641,4.725824833,14.45324707,-5.245366573,16.0855103,16.085510302872233
9.0465524,5.863013744,14.65663719,-5.827121258,16.8269809,16.826980894891975
9.04905839,6.722635269,15.01825237,-6.540780544,17.70659593,17.70659592733121
9.051564379,7.196712971,15.27428436,-7.325925827,18.40558691,18.405586910495572
9.054070369,7.194320202,15.44447422,-7.907680511,18.78354168,18.783541683218292
9.056576358,6.808776855,15.51386547,-8.01775074,18.74363335,18.743633346051467
9.059082348,6.171987057,16.28944016,-7.500601768,18.96571411,18.965714113634665
9.061588338,5.250152111,18.04666901,-6.476174355,19.87931572,19.8793157282008
9.064094327,3.940679789,20.21576118,-5.673980713,21.36352065,21.36352064660046
9.066600317,2.090130568,19.14078712,-4.136891365,19.69396475,19.693964748883282
9.069106306,1.20179522,13.15783215,0.06460621208,13.21276021,13.212760218857671
9.071612296,2.46819663,5.604588985,3.251247883,6.933543473,6.933543472989744
9.074118285,4.730610371,-0.3687937856,2.420340061,5.3266058,5.326605800074886
9.076624275,7.220641613,-4.017250061,-0.3735794425,8.27136778,8.271367780231415
9.079130265,9.700801849,-5.51605463,-2.999702215,11.55554536,11.555545360275392
9.081636254,11.94168091,-4.984548569,-4.359723091,13.65491314,13.654913138617067
9.084142296,13.62233925,-2.635993242,-4.565505505,14.60686234,14.606862343780252
9.086648285,14.41735458,0.9074779749,-4.496113777,15.1293975,15.129397491509858
9.089154275,14.33360577,4.898406982,-4.742574692,15.87257572,15.87257572167424
9.091660265,13.61994648,8.623434067,-5.209474087,16.94122715,16.94122715416699
9.094166254,12.53539944,11.66411304,-5.590231895,18.01217546,18.012175459120026
9.096672244,11.06560802,13.86192036,-5.034798145,18.43772517,18.43772516554486
9.099178233,9.011369705,14.8337059,-3.995714664,17.81037199,17.810371988366533
9.101684223,6.439982891,14.35274887,-3.457030535,16.10670171,16.106701707102584
9.104190213,3.600599766,12.76780224,-3.36849618,13.6867768,13.68677680205763
9.106696202,0.8476574421,10.63460159,-3.212962627,11.14165172,11.141651715956518
9.109202192,-1.498804331,8.357830048,-2.925524712,8.981003973,8.981003973632276
9.111708181,-3.337389469,6.222236156,-2.700599432,7.559605052,7.559605051915377
9.114214171,-4.637290478,4.433900356,-2.59052968,6.919160308,6.919160307959867
9.11672016,-5.456233978,3.066701412,-2.604886532,6.779423325,6.779423324858796
9.119226202,-5.863013744,2.104487419,-2.633600473,6.763109412,6.763109411391183
9.121732192,-5.829514027,1.517946839,-2.695813894,6.599606727,6.599606726775717
9.124238181,-5.396413326,1.20179522,-2.753241539,6.176238945,6.176238945176936
9.126744171,-4.620540619,1.070189953,-2.810669184,5.513126464,5.513126464105306
9.12925016,-3.502494097,1.134796143,-2.827419043,4.642146661,4.642146661880315
9.13175615,-2.099701881,1.429412484,-2.791526794,3.774200562,3.77420056172296
9.13426214,-0.5841478109,1.8840487,-2.726920605,3.365555549,3.365555549225791
9.136768129,0.9601200819,2.386840582,-2.731706142,3.752473449,3.7524734485123656
9.139274119,2.396411896,2.872882605,-2.822633505,4.686523694,4.686523694696367
9.141780108,3.638885021,3.291925669,-2.973381281,5.737530396,5.7375303963012225
9.144286098,4.697110653,3.694219112,-3.184248686,6.771229063,6.771229063344769
9.146792088,5.480162144,3.959822416,-3.387638569,7.562305585,7.562305585267176
9.149298077,5.987739563,4.132105827,-3.512065411,8.078485445,8.078485445365695
9.151804067,6.277271271,4.252045631,-3.663112402,8.420357423,8.420357422788795
9.154310056,6.40648365,4.311866283,-3.806681633,8.609648579,8.609648579077378
9.156816046,6.370591164,4.275974274,-3.914358854,8.613396136,8.613396136753082
9.159322035,6.229414463,4.184747696,-4.007678986,8.507597116,8.507597115862792
9.161828025,5.978168488,4.026821613,-4.060320854,8.272846923,8.272846922992557
9.164334015,5.697908878,3.895216227,-4.014857292,7.984857802,7.984857801626834
9.166840056,5.350949764,3.732504129,-3.856930971,7.578929144,7.578929143679383
9.169346046,5.037190914,3.574278831,-3.622135162,7.160211212,7.160211211802041
9.171852035,4.747360229,3.430709362,-3.380460262,6.762744078,6.76274407717507
9.174358025,4.474578381,3.330210924,-3.157927752,6.409731989,6.409731989162518
9.176864015,4.228117466,3.263211966,-2.906382322,6.080508847,6.080508847372394
9.179370004,4.005286217,3.229712248,-2.573779821,5.753060181,5.75306018149977
9.181875994,3.847359657,3.239283562,-2.193022013,5.486754949,5.48675494940836
9.184381983,3.766003847,3.325425386,-1.879263043,5.364034728,5.364034727540237
9.186887973,3.744468451,3.382853031,-1.649552107,5.309026348,5.309026347984004
9.189393963,3.742075443,3.476173162,-1.513161182,5.326965857,5.326965856472553
9.191899952,3.76361084,3.622135162,-1.438983679,5.418053499,5.418053498738329
9.194405942,3.799503326,3.770789385,-1.43659091,5.542460785,5.542460784977045
9.196911931,3.888037682,3.943072557,-1.505982757,5.738696914,5.7386969140040645
9.199417921,3.931108475,4.105784416,-1.616052628,5.909543604,5.90954360415007
9.20192391,3.916751623,4.228117466,-1.668694735,6.000205222,6.000205221589018
9.204429952,3.957429647,4.357329845,-1.795514345,6.153977946,6.153977945376718
9.206935942,4.010071754,4.493721008,-1.953440547,6.331677025,6.331677024346143
9.209441931,4.074677944,4.627718925,-2.099701881,6.513641899,6.513641898753582
9.211947921,4.139284134,4.754538536,-2.169093609,6.666654102,6.666654102088828
9.21445391,4.285545349,4.864907742,-2.161915302,6.834259583,6.834259583124482
9.2169599,4.498506546,4.970191956,-2.118844509,7.030566924,7.030566924310685
9.21946589,4.749752998,5.09461832,-2.176272154,7.297359102,7.297359101535665
9.221971879,4.979763031,5.23818779,-2.331805706,7.594337958,7.594337957896892
9.224477869,5.171188831,5.319543839,-2.401197433,7.797723366,7.797723366031126
9.226983858,5.336592674,5.358128071,-2.42273283,7.940931442,7.9409314415242545
9.229489848,5.451447964,5.353342533,-2.461018085,8.027027544,8.02702754414881
9.231995838,5.561518192,5.298008442,-2.319841623,8.023779858,8.023779857850881
9.234501827,5.688337803,5.204688549,-2.087737799,7.987779352,7.987779351641103
9.237007817,5.853442192,5.147260666,-1.888834357,8.020272632,8.02027263171397
9.239513806,5.992525101,5.156831741,-1.807478428,8.109885878,8.109885878283707
9.242019796,6.152844429,5.240580559,-1.795514345,8.279193857,8.279193857251192
9.244525838,6.289235115,5.417948723,-1.819442511,8.498177319,8.498177319145581
9.247031827,6.356234074,5.575874805,-1.929512382,8.672664497,8.67266449695846
9.249537817,6.337091446,5.709873199,-2.073380709,8.778398915,8.778398914840803
9.252043806,6.210271835,5.827121258,-2.228914261,8.802890276,8.802890275524224
9.254549796,5.939883232,5.94466877,-2.23130703,8.694827811,8.694827810654763
9.257055785,5.549553871,6.052345753,-2.121237278,8.481042676,8.481042675907549
9.259561775,5.171188831,6.203093529,-1.951047778,8.3081978,8.308197800210317
9.262067765,4.874478817,6.248557091,-1.762014747,8.118479255,8.11847925571739
9.264573754,4.709074974,6.224628925,-1.826620936,8.016104816,8.016104815216258
9.267079744,4.680361271,6.12173748,-2.087737799,7.983739758,7.983739757687926
9.269585733,4.747360229,6.040381432,-2.338984251,8.030845803,8.030845803174616
9.272091723,4.881657124,6.119344711,-2.463410854,8.206421206,8.206421205613848
9.274597713,5.097011566,6.337091446,-2.413161755,8.483018599,8.483018599219196
9.277103702,5.324329376,6.626922131,-2.281556368,8.801708907,8.80170890764035
9.279609744,5.595017433,7.03400135,-2.157129526,9.243084056,9.243084055623248
9.282115733,5.896812439,7.400103092,-2.130808592,9.699189037,9.699189036652193
9.284621723,6.203093529,7.663612843,-2.152343988,10.09167557,10.091675568486929
9.287127713,6.468996048,7.843074322,-2.233700037,10.40918539,10.409185392947384
9.289633702,6.669992924,8.029714584,-2.362912416,10.70273222,10.702732220905059
9.292139692,6.79920578,8.195118904,-2.496910334,10.93726357,10.93726356569684
9.294645681,6.890132904,8.376973152,-2.65513587,11.16679708,11.166797083867555
9.297151671,6.904489517,8.6090765,-2.803490877,11.38629592,11.386295919685093
9.29965766,6.837490559,8.882157326,-2.930310488,11.58579801,11.585798007229041
9.30216365,6.741777897,9.138189316,-2.97577405,11.73939114,11.739391141971021
9.30466964,6.631708145,9.384949684,-3.028416157,11.88394454,11.883944543443885
9.307175629,6.555137634,9.624231339,-3.078665495,12.04466021,12.044660206804359
9.309681619,6.550352097,9.861420631,-3.150749207,12.25079385,12.250793852709947
9.312187608,6.614958286,10.11505985,-3.220141172,12.50765438,12.507654378907807
9.314693598,6.693921566,10.38574791,-3.303889751,12.79015375,12.790153754689271
9.31719964,6.825526714,10.65135098,-3.392424345,13.09761946,13.097619461536638
9.319705629,6.937989235,10.89781189,-3.468994617,13.37654373,13.376543733998563
9.322211619,7.026822567,11.10389328,-3.54556489,13.61042658,13.610426582254147
9.324717608,7.101000309,11.34317589,-3.622135162,13.8640437,13.864043702747482
9.327223598,7.139285564,11.6330061,-3.730111361,14.14955688,14.149556885374087
9.329729588,7.153642178,11.93450165,-3.837788343,14.43383336,14.433833358133937
9.332235577,7.160820961,12.27936745,-3.962215185,14.75667208,14.756672083497046
9.334741567,7.14885664,12.6433754,-4.156033993,15.10740584,15.107405843346129
9.337247556,7.11296463,12.98554897,-4.390829563,15.44338474,15.443384736877272
9.339753546,7.041179657,13.26580906,-4.575077057,15.7000392,15.70003920555667
9.342259535,6.978667259,13.61516094,-4.680361271,15.99938079,15.999380793049992
9.344765525,6.94756031,13.94566917,-4.759324074,16.29114633,16.29114632251309
9.347271515,6.966702938,14.21366596,-4.814658165,16.54521632,16.545216320574408
9.349777556,7.062715054,14.48674679,-4.888835907,16.84186726,16.841867266343897
9.352283546,7.256533623,14.70927906,-5.001298428,17.14739504,17.14739503984787
9.354789535,7.493422985,14.86720562,-5.101797104,17.41302744,17.413027441254112
9.357295525,7.764111042,14.93211079,-5.1735816,17.60725133,17.607251332595876
9.359801515,7.981858253,14.87946892,-5.202295303,17.66840493,17.668404934567413
9.362307504,8.082356453,14.75952816,-5.180759907,17.60705627,17.607056271653203
9.364813494,8.099106789,14.59442329,-5.152046204,17.46815108,17.468151076615726
9.367319483,8.056035995,14.46281815,-5.161617756,17.3411396,17.341139600722887
9.369825473,7.962715626,14.34078407,-5.180759907,17.20183715,17.201837143075416
9.372331463,7.926823139,14.25195122,-5.190331459,17.114093,17.11409300280124
9.374837452,7.926823139,14.20170116,-5.1735816,17.06718453,17.06718452137873
9.377343442,7.93878746,14.18255901,-5.058726311,17.02233939,17.02233938966055
9.379849431,8.015357971,14.08206081,-4.752145767,16.88589025,16.885890247500342
9.382355421,8.063214302,13.81645679,-4.28315258,16.56065516,16.560655154113775
9.38486141,8.091927528,13.45244884,-3.675076485,16.12308464,16.12308463296715
9.387367452,8.14726162,12.94965744,-3.040380239,15.59857082,15.598570822859832
9.389873442,8.195118904,12.3176527,-2.48733902,15.00237972,15.002379720861954
9.392379431,8.240582466,11.56122208,-2.044667006,14.34397847,14.34397847626143
9.394885421,8.286046028,10.692029,-1.716551185,13.63541678,13.635416784451456
9.39739141,8.290831566,9.734301567,-1.505982757,12.87487861,12.874878605931086
9.3998974,8.28126049,8.733802795,-1.383649707,12.11499373,12.114993729955705
9.40240339,8.326724052,7.780860901,-1.328614831,11.47350632,11.473506315334426
9.404909379,8.412865639,6.94756031,-1.252044439,10.98237305,10.982373049490944
9.407415369,8.563612938,6.346662998,-1.115653515,10.71728886,10.717288860882457
9.409921358,8.874979019,6.054738522,-0.8306085467,10.77566804,10.77566804032734
9.412427348,9.310771942,6.07148838,-0.555433929,11.12932847,11.12932846823625
9.414933338,9.820742607,6.375376701,-0.308973223,11.71272291,11.712722906529029
9.417439327,10.32084274,6.839883327,-0.2464607358,12.38404384,12.384043834106627
9.419945317,10.77817059,7.373782158,-0.5195416212,13.0694892,13.069489204897765
9.422451358,11.10867882,7.847859859,-1.182652593,13.6524839,13.652483900307287
9.424957348,11.26660538,8.216653824,-2.078166485,14.09853087,14.098530873515722
9.427463338,11.14935684,8.429615021,-3.023630619,14.30066116,14.300661154928394
9.429969327,10.77577782,8.441578865,-3.804288864,14.20740142,14.207401420413694
9.432475317,10.16530895,8.257331848,-4.340580463,13.79701686,13.797016853389811
9.434981306,9.480662346,7.890930653,-4.587040901,13.16019336,13.160193361678395
9.437487296,8.788837433,7.498209,-4.551148891,12.41691418,12.416914184266297
9.439993285,8.235795975,7.115357399,-4.196712017,11.66486339,11.664863394440694
9.442499275,7.855038643,6.775277138,-3.583850145,10.97497126,10.9749712638141
9.445005265,7.754539967,6.483353138,-2.853740215,10.5028849,10.502884900184476
9.447511254,7.912466049,6.322734833,-2.16670084,10.35754253,10.357542530690662
9.450017244,8.22383213,6.294020653,-1.616052628,10.48130416,10.481304164047364
9.452523233,8.573184013,6.294020653,-1.247258782,10.70840019,10.708400187256053
9.455029223,8.898907661,6.361020088,-1.029511929,10.98694812,10.986948117238805
9.457535265,9.126225471,6.444768906,-0.9672985673,11.21421884,11.214218836707898
9.460041254,9.272486687,6.509674072,-1.01036942,11.37434448,11.374344475578908
9.462547244,9.396913528,6.547959328,-1.120439172,11.50795982,11.50795981710067
9.465053233,9.478269577,6.533602238,-1.242473125,11.57882947,11.578829467827465
9.467559223,9.566803932,6.535995007,-1.354935765,11.66528264,11.665282642616754
9.470065213,9.667302132,6.571887493,-1.376471281,11.77034872,11.77034871698538
9.472571202,9.74865818,6.605386734,-1.275972724,11.84464337,11.84464337194565
9.475077192,10.01934624,7.333104134,-1.311864972,12.48529955,12.485299556752759
9.477583181,10.55085278,10.9746809,-1.544267893,15.30192401,15.301924015214857
9.480089171,9.847063065,18.04427528,-0.4501497746,20.56120513,20.56120512533443
9.48259516,7.819146156,21.49891281,-3.085843801,23.08386299,23.083862990951964
9.48510115,6.411269188,21.35055733,-7.421638489,23.49534823,23.495348236704668
9.48760714,5.764907837,22.25085831,-8.30279541,24.43913397,24.43913397649592
9.490113129,4.622933388,24.24736977,-9.418449402,26.41994782,26.41994782377568
9.492619171,1.611266971,26.18196678,-10.05763149,28.09354938,28.093549382545074
9.49512516,-3.026023388,27.98705101,-8.831908226,29.50312602,29.50312601561996
9.49763115,-8.348258972,30.01466942,-5.654838085,31.66308579,31.663085794391993
9.50013714,-14.20888042,32.2773819,-1.388435364,35.29375891,35.29375890817402
9.502643129,-21.29791641,33.40978622,3.239283562,39.75308814,39.75308814002369
9.505149119,-28.98306465,32.7918396,9.552447319,44.79477682,44.794776823202035
9.507655108,-35.35604858,29.85195732,16.76112366,49.21508705,49.21508705033685
9.510161098,-39.18665695,24.07747841,21.92752838,50.952287,50.95228699829581
9.512667088,-39.01198196,16.06690598,22.68156624,47.90129071,47.90129070617025
9.515173077,-33.8716011,7.713861942,17.9581337,39.10605571,39.10605570912046
9.517679067,-25.38216591,0.4956133962,9.779765129,27.20558371,27.205583708122553
9.520185056,-16.71805382,-4.802694321,1.216152072,17.43669183,17.436691834508405
9.522691046,-8.855836868,-7.014858723,-6.114559174,12.84608592,12.846085918622249
9.525197035,-2.355733871,-5.992525101,-11.11585712,12.84609352,12.846093517849946
9.527703077,2.59052968,-2.628814697,-13.86431313,14.34714917,14.34714916981121
9.530209067,6.317949295,1.706979871,-15.14028645,16.49419708,16.49419708146607
9.532715056,9.150154114,6.365805626,-15.48993778,19.08368345,19.083683449644507
9.535221046,11.23310566,10.54128075,-14.62792301,21.24329057,21.243290569154585
9.537727035,12.76062393,13.74676609,-12.4301157,22.50144167,22.501441672289555
9.540233025,13.81167126,15.71247005,-9.514162064,22.98180276,22.981802754494993
9.542739015,14.36471272,16.34926033,-6.545566559,22.72636632,22.726366327341918
9.545245004,14.50828171,15.92303848,-4.230510235,21.95291802,21.95291801699084
9.547750994,14.53938866,14.78106403,-2.540280342,20.88843462,20.888434615390597
9.550256983,14.48913956,13.31605816,-1.400399446,19.7284994,19.728499403604335
9.552762973,14.36231995,11.84118176,-0.6678966284,18.62621554,18.626215550286986
9.555268963,14.1490593,10.65374374,0.2922234535,17.71393602,17.713936019396737
9.557774952,13.72523022,9.674481392,1.20179522,16.83513726,16.835137259522725
9.560280994,13.05972672,8.882157326,1.601695657,15.87496802,15.8749680233552
9.562786983,12.26501083,8.283653259,1.357328653,14.86242723,14.86242722598208
9.565292973,11.46760273,7.991429329,0.8644071817,14.0041442,14.004144203387773
9.567798963,10.692029,7.900502205,0.2751746178,13.29711022,13.297110223591147
9.570304952,9.866206169,8.087141991,-0.5578267574,12.76930149,12.769301486106453
9.572810942,8.87258625,8.300402641,-1.431805253,12.23395018,12.233950181724921
9.575316931,8.082356453,8.142476082,-3.215355396,11.91481905,11.914819046123995
9.577822921,7.364210606,7.507780075,-5.468197823,11.85325048,11.85325047974402
9.58032891,6.598208427,6.428019047,-7.045965195,11.59747424,11.597474244156786
9.5828349,6.155237198,5.118546963,-7.898109436,11.245737,11.245736998485766
9.58534089,6.212665081,4.189533234,-8.831908226,11.5824004,11.582400400605813
9.587846879,6.317949295,4.036392689,-10.06241703,12.5483539,12.548353904781203
9.590352869,6.076273918,4.749752998,-11.09910774,13.51560028,13.515600278667057
9.592858858,5.638088226,6.21505785,-11.39821053,14.15394596,14.153945958961739
9.5953649,5.178367138,7.996214867,-11.02732277,14.5724667,14.572466705706024
9.59787089,4.785944462,9.461520195,-10.38066292,14.83859129,14.83859128935103
9.600376879,4.476971149,10.29930687,-9.770194054,14.88541852,14.885418520291074
9.602882869,4.33340168,10.48146057,-9.008976936,14.48451074,14.484510735060107
9.605388858,4.431507587,10.2275219,-8.130212784,13.79640618,13.796406185008296
9.607894848,4.699503899,9.892526627,-7.182356358,13.09708604,13.097086042930435
9.610400838,4.977370262,9.593125343,-6.088238239,12.40439089,12.404390893001262
9.612906827,5.149653435,9.368199348,-4.704289436,11.67957314,11.67957313527066
9.615412817,5.247759342,9.15733242,-3.256033421,11.04524643,11.045246434579914
9.617918806,5.350949764,9.092725754,-2.08534503,10.75448692,10.754486919814084
9.620424796,5.379663467,9.037691116,-1.321436286,10.60032233,10.600322333983872
9.622930785,5.219045162,8.989834785,-0.8715856671,10.43145356,10.431453563127516
9.625436827,4.874478817,8.927620888,-0.737288475,10.1983603,10.19836029725384
9.627942817,4.388436794,8.836693764,-0.9529415965,9.912297002,9.91229700220839
9.630448806,3.871287823,8.760123253,-1.45334065,9.68704433,9.687044330506689
9.632954796,3.447459221,8.697610855,-2.07098794,9.582400572,9.582400571521585
9.635460785,3.169891834,8.685647011,-2.614457846,9.608541412,9.608541412069997
9.637966775,2.968595505,8.791230202,-2.997309446,9.751007725,9.751007724945355
9.640472765,2.856132984,8.965906143,-3.073879719,9.899176992,9.899176991763376
9.642978754,2.758027315,9.154939651,-2.827419043,9.970653596,9.970653595851033
9.645484744,2.688635349,9.39452076,-2.410768747,10.0646702,10.06467020331393
9.647990733,2.585743904,9.578767776,-1.963011861,10.11396456,10.113964564404792
9.650496723,2.48733902,9.707980156,-1.496411443,10.13266901,10.132669012478681
9.653002713,2.451446772,9.72712326,-1.17068851,10.09935789,10.099357889421896
9.655508702,2.50169611,9.688838005,-1.089332461,10.06571957,10.065719573110995
9.658014692,2.662314177,9.562018394,-1.26640141,10.00619234,10.006192336523396
9.660520733,2.951845884,9.368199348,-1.699801445,9.968243482,9.968243481134449
9.663026723,3.397209883,9.164510727,-2.362912416,10.05547845,10.05547845406363
9.665532713,3.900001764,8.975478172,-3.105285645,10.26703565,10.267035653600052
9.668038702,4.488935471,8.898907661,-3.852145433,10.68550999,10.685509985900966
9.670544692,5.1735816,8.925228119,-4.510470867,11.25921805,11.259218045233096
9.673050681,5.889334679,9.006584167,-4.934299469,11.83850213,11.838502125197293
9.675556671,6.643671989,9.193224907,-4.96779871,12.38276164,12.382761635079069
9.67806266,7.385746002,9.449555397,-4.989334106,12.98987283,12.989872825717951
9.68056865,8.012965202,9.823135376,-5.008476734,13.63034993,13.630349927228751
9.68307464,8.278866768,9.9643116,-4.721039295,13.7882324,13.788232397560009
9.685580629,8.108677864,9.847063065,-3.911965847,13.34236802,13.34236802431657
9.688086671,7.828717709,9.774979591,-3.454637766,12.9912882,12.991288198864275
9.69059266,7.464709282,9.681659698,-3.085843801,12.60868158,12.608681578056627
9.69309865,7.120142937,9.676874161,-2.772384167,12.32981926,12.329819258228108
9.69560464,6.837490559,9.815657616,-2.57617259,12.23662849,12.236628489597134
9.698110629,6.684350014,9.976275444,-2.607279301,12.28838932,12.288389324791197
9.700616619,6.492924213,10.11984539,-2.801098108,12.3456667,12.345666695804933
9.703122608,6.258128643,10.1964159,-3.037987471,12.34343709,12.343437089889623
9.705628598,5.855835438,10.16052341,-3.296711445,12.18176305,12.181763049480509
9.708134588,5.321936607,10.03609657,-3.502494097,11.88754426,11.887544259047461
9.710640577,4.68275404,9.8638134,-3.5766716,11.4898033,11.489803302206807
9.713146567,3.990929127,9.691230774,-3.636492252,11.09376154,11.093761540186343
9.715652556,3.356531858,9.495018959,-3.775574923,10.75530832,10.755308324019577
9.718158546,2.679064035,9.274879456,-3.751646757,10.35739477,10.357394769741568
9.720664535,2.044667006,9.056833267,-3.66789794,9.983003921,9.983003921161163
9.723170577,1.613659739,8.891729355,-3.622135162,9.735841608,9.735841607567115
9.725676567,1.398006678,8.798408508,-3.725325823,9.656317488,9.656317488198594
9.728182556,1.366899967,8.803194046,-3.868895054,9.712517175,9.712517174768863
9.730688546,1.455733418,8.846264839,-3.96939373,9.804674802,9.804674801836773
9.733194535,1.601695657,8.896514893,-4.230510235,9.980512164,9.980512164586706
9.735700525,1.80508554,8.910871506,-4.472185612,10.132246,10.132245997375882
9.738206515,2.013560295,8.946763992,-4.661218643,10.28717504,10.287175036325522
9.740712504,2.23130703,8.997013092,-4.891228676,10.48089183,10.48089183231425
9.743218494,2.389233351,9.023334503,-5.0324049,10.60443778,10.604437780292972
9.745724483,2.472982168,9.035298347,-5.025226593,10.63038849,10.630388484601175
9.748230473,2.506481647,9.052047729,-4.888835907,10.58880233,10.588802333617073
9.750736463,2.51844573,9.037691116,-4.651647091,10.47187902,10.471879022524531
9.753242452,2.508874655,9.073583603,-4.388436794,10.38666207,10.386662068733383
9.755748494,2.477767944,9.116654396,-4.208974838,10.34254275,10.34254275056851
9.758254483,2.45383954,9.282057762,-4.139284134,10.45521869,10.45521869341603
9.760760473,2.39162612,9.39452076,-4.228117466,10.57609914,10.576099144497062
9.763266463,2.169093609,9.212367058,-3.888037682,10.23178923,10.231789233197688
9.765772452,1.97527504,9.049654961,-3.751646757,9.993638966,9.993638966167806
9.768278442,1.905584097,8.946763992,-3.813860178,9.910669308,9.910669308206247
9.770784431,1.888834357,8.934800148,-3.806681633,9.893895793,9.893895793260812
9.773290421,1.917548299,8.939585686,-3.634099483,9.838692127,9.838692126938149
9.77579641,1.919941068,8.925228119,-3.36849618,9.731014191,9.731014191514461
9.7783024,1.951047778,9.013762474,-3.394817114,9.827476004,9.82747600390032
9.78080839,1.965703845,9.224330902,-3.607778311,10.09793724,10.097937241692579
9.783314379,1.903191328,9.41366291,-3.696611881,10.29097304,10.290973035278755
9.785820421,1.754836321,9.554840088,-3.730111361,10.40615925,10.406159252395378
9.78832641,1.424626827,9.375378609,-3.421138287,10.08124362,10.081243615600219
9.7908324,1.165902853,9.12861824,-3.061915636,9.698779707,9.69877970655461
9.79333839,1.125224829,9.061619759,-3.165106058,9.664211293,9.66421129378314
9.795844379,1.259222865,9.217152596,-3.258426189,9.856920687,9.856920687052797
9.798350369,1.474876046,9.447162628,-3.114856958,10.05616602,10.056166015920057
9.800856358,1.673480392,9.698409081,-2.961417198,10.27762945,10.277629451650895
9.803362348,1.785943031,9.882955551,-2.994916677,10.48007294,10.48007294035647
9.805868338,1.754836321,9.957133293,-2.999702215,10.54619208,10.54619207613562
9.808374327,1.592124343,9.99302578,-2.930310488,10.5348063,10.534806297194105
9.810880317,1.287936807,9.954740524,-2.743670225,10.40592939,10.405929387735855
9.813386358,0.9122636318,9.825528145,-2.429911375,10.16256353,10.1625635325171
9.815892348,0.5578267574,9.715159416,-2.271985054,9.99286792,9.99286791942955
9.818398338,0.1770688742,9.607481956,-2.147558212,9.846170281,9.84617028062204
9.820904327,-0.1938186288,9.57158947,-2.106880426,9.802644326,9.80264432551476
9.823410317,-0.5769693851,9.562018394,-2.26241374,9.842946987,9.842946986013784
9.825916306,-0.9194421172,9.497411728,-2.417947292,9.843407563,9.843407562674791
9.828422296,-1.213759303,9.382556915,-2.549851656,9.79833299,9.798332989669177
9.830928285,-1.431805253,9.361021042,-2.762812853,9.864680232,9.864680232627268
9.833434275,-1.561017632,9.368199348,-2.987738132,9.95622992,9.9562299198386
9.835940265,-1.651944876,9.145368576,-2.695813894,9.676471507,9.676471506459075
9.838446254,-1.604088426,8.910871506,-2.370090723,9.359169873,9.359169872917176
9.840952244,-1.359721422,8.836693764,-2.410768747,9.260011068,9.260011067794366
9.843458285,-1.029511929,8.898907661,-2.619243383,9.333321396,9.333321395427626
9.845964275,-0.6439684033,9.056833267,-2.868097067,9.521917082,9.521917081996707
9.848470265,-0.3113660514,9.26530838,-3.215355396,9.812308522,9.812308521293497
9.850976254,-0.1124626622,9.2362957,-3.174677372,9.76731194,9.76731193955207
9.853482244,0.002392822644,8.968298912,-2.920739174,9.431919657,9.431919657371918
9.855988233,0.1818545163,8.762516975,-2.820240498,9.206982745,9.206982745113686
9.858494223,0.4022932947,8.72423172,-3.037987471,9.246806307,9.246806306675172
9.861000213,0.608076036,8.721838951,-2.932703257,9.221766617,9.221766617430559
9.863506202,0.8668000102,8.654540062,-2.695813894,9.106031984,9.106031983994407
9.866012192,1.082154036,8.286046028,-2.252842426,8.65476257,8.65476256936903
9.868518181,1.41984117,8.185546875,-2.40598321,8.649154976,8.649154975929797
9.871024171,1.793121457,8.379365921,-3.167499065,9.135759855,9.135759854787441
9.873530213,2.10209465,8.793622971,-3.770789385,9.796196173,9.796196172989093
9.876036202,2.240878344,8.831908226,-3.392424345,9.722791862,9.722791862507565
9.878542192,2.271985054,8.760123253,-2.702992201,9.44499033,9.444990329905982
9.881048181,2.346162558,9.018548965,-2.937488794,9.770749439,9.770749438888465
9.883554171,2.305484533,9.497411728,-3.253640652,10.30059542,10.300595417518405
9.88606016,2.130808592,9.88534832,-2.851347208,10.50669489,10.5066948924977
9.88856615,1.776371717,9.947562218,-2.097309113,10.32028081,10.320280813689685
9.89107214,1.381256819,9.847063065,-1.587338686,10.06936768,10.06936768174613
9.893578129,1.070189953,9.832706451,-1.93190515,10.07768228,10.077682282927741
9.896084119,0.7923234105,9.916455269,-2.664707184,10.29876332,10.298763317280644
9.898590108,0.5291129351,10.00020409,-2.868097067,10.41681444,10.416814442308016
9.901096098,0.3113660514,10.14138031,-2.927917719,10.56017261,10.560172611243356
9.90360214,0.1220339537,10.13898754,-2.714956284,10.49690184,10.49690184036042
9.906108129,-0.03349951655,10.16770172,-2.813062191,10.54972035,10.54972034581646
9.908614119,-0.2153540403,10.24905777,-2.982952595,10.67649609,10.676496088112811
9.911120108,-0.3807578981,10.50778198,-3.133999348,10.9718007,10.971800701318024
9.913626098,-0.5865406394,10.7614212,-3.265604734,11.26127837,11.261278366340136
9.916132088,-0.7707880139,10.95793152,-3.212962627,11.44523945,11.445239455855878
9.918638077,-0.9457631707,11.05125141,-3.141177893,11.52786295,11.527862952757179
9.921144067,-1.01036942,11.14935684,-3.205784082,11.64500133,11.645001326360186
9.923650056,-0.9409775138,11.35992527,-3.622135162,11.96048511,11.960485105264693
9.926156046,-0.8282157183,11.49153042,-3.785146236,12.12718206,12.127182059230806
9.928662035,-0.7229315639,11.55882931,-3.36849618,12.06134037,12.061340372382855
9.931168077,-0.6678966284,11.6019001,-3.073879719,12.02076987,12.020769873992581
9.933674067,-0.5769693851,11.5899353,-2.856132984,11.95060624,11.95060624202059
9.936180056,-0.5003990531,11.52532959,-2.779562712,11.86632168,11.866321681145077
9.938686046,-0.4908277392,11.47717381,-2.616850615,11.78194965,11.781949655118375
9.941192035,-0.5458626747,11.43171024,-2.403590441,11.69440944,11.694409436949694
9.943698025,-0.6200401783,11.48195934,-2.441875458,11.75510935,11.755109351277946
9.946204015,-0.6535396576,11.43410301,-2.32701993,11.68678089,11.686780886196344
9.948710004,-0.6750751138,11.47717381,-2.288734913,11.7226086,11.722608607993662
9.951215994,-0.6870391965,11.36949635,-2.032702923,11.57019236,11.57019236155404
9.953721983,-0.684646368,11.26660538,-1.766800404,11.42482915,11.424829149945092
9.956227973,-0.6511468887,11.31924725,-1.747657895,11.47186378,11.471863784723565
9.958733963,-0.5913262963,11.39821053,-1.599302888,11.52504402,11.525044026053171
9.961240004,-0.4812564552,11.52532959,-1.482054472,11.63018983,11.630189826128223
9.963745994,-0.3592225015,11.8148613,-1.599302888,11.92802406,11.928024064000992
9.966251983,-0.2440679073,12.08315659,-1.886441588,12.2319624,12.231962401298093
9.968757973,-0.1196411327,12.32961655,-2.13559413,12.51377323,12.513773234271031
9.971263963,-0.01196411345,12.58564854,-2.075773716,12.75568613,12.755686137266437
9.973769952,0.0382851623,12.78694534,-1.893620014,12.9264548,12.926454797786647
9.976275942,0.009571290575,12.9759779,-1.872084618,13.11033161,13.110331608614782
9.978781931,-0.05503492057,13.13151169,-1.90079844,13.26848382,13.268483817550338
9.981287921,-0.1914258152,13.2203455,-1.860120535,13.35193721,13.351937214757413
9.98379391,-0.4022932947,13.30409431,-1.85294199,13.43853264,13.438532632792917
9.9862999,-0.6463612318,13.36630726,-1.80508554,13.50312136,13.503121358316372
9.988805942,-0.8452646136,13.49551964,-1.958226204,13.66302208,13.663022084687645
9.991311931,-1.108475089,13.59362507,-2.183450699,13.8124153,13.812415303690722
9.993817921,-1.357328653,13.63430309,-2.336591244,13.89950433,13.899504324391419
9.99632391,-1.527518153,13.81167126,-2.408375978,14.10304398,14.103043981831085
9.9988299,-1.623231053,14.19452286,-2.528316259,14.50902276,14.50902275758122
10.00133589,-1.735693693,14.55613804,-2.482553482,14.867981,14.86798100033913
10.00384188,-1.8840487,15.00150204,-2.226521492,15.28241149,15.282411488846703
10.00634787,-1.992024899,15.54975796,-2.037488461,15.80868416,15.808684165405023
10.00885386,-2.049452543,16.05494308,-1.996810555,16.30793382,16.30793381825572
10.01135985,-2.003988981,16.77787399,-2.46819663,17.07644642,17.07644641207975
10.01386584,-2.082952023,17.76670837,-3.375674486,18.20411475,18.204114745578245
10.01637183,-2.45383954,18.77199364,-4.378865242,19.4315088,19.431508806983146
10.01887787,-3.117249727,19.82782555,-5.281258583,20.75455622,20.75455622561527
10.02138386,-4.105784416,20.68744659,-5.532804012,21.80458283,21.80458282838666
10.02388985,-5.298008442,21.30988121,-5.152046204,22.55489993,22.554899927154747
10.02639584,-6.571887493,21.63081741,-4.407579422,23.03277499,23.032774982764163
10.02890183,-7.742575645,21.62603188,-3.619742393,23.25371513,23.25371513296327
10.03140782,-8.700303078,21.32423782,-2.832204819,23.20430513,23.20430512619892
10.03391381,-9.346664429,20.79033852,-2.159522533,22.89676504,22.89676503995847
10.0364198,-9.684052467,20.04347801,-1.67587316,22.32331592,22.323315922357295
10.03892578,-9.686445236,19.22692871,-1.594517231,21.5880637,21.588063695695485
10.04143178,-9.428020477,18.44896126,-2.008774519,20.81554507,20.81554507467666
10.04393776,-8.968298912,17.75474358,-2.769991398,20.08318095,20.083180956002103
10.04644381,-8.247760773,17.41705704,-3.488137245,19.58434413,19.58434413359833
10.0489498,-7.373782158,17.68774414,-3.87368083,19.5508148,19.550814797559024
10.05145578,-6.602993965,18.48006821,-3.92392993,20.01273785,20.012737854767117
10.05396178,-6.104988098,19.53111649,-3.737289906,20.8015078,20.80150780266087
10.05646776,-5.827121258,20.48884392,-3.457030535,21.58006319,21.580063193917642
10.05897375,-5.549553871,21.13520432,-3.090928555,22.06916965,22.06916965242218
10.06147974,-5.106582642,21.34098625,-2.913560629,22.13602756,22.136027555573826
10.06398573,-4.359723091,21.08016968,-3.265604734,21.7725725,21.772572504105096
10.06649172,-3.349353552,20.55105591,-4.386044025,21.2791318,21.279131806102406
10.06899771,-2.226521492,19.95494461,-6.037988663,20.96698642,20.966986417628604
10.0715037,-1.163509965,19.44018936,-7.642077446,20.92070901,20.920709010020992
10.07400974,-0.1387837082,19.07857323,-8.539685249,20.90304862,20.903048618852768
10.07651573,0.8548358679,18.79861259,-8.453543663,20.62961416,20.629614153740306
10.07902172,1.687837243,18.36042786,-7.40488863,19.86923454,19.869234544486744
10.08152771,2.271985054,17.43859291,-5.784050465,18.51274368,18.512743679637776
10.0840337,2.944667339,16.19133377,-4.100998878,16.9602048,16.960204797887112
10.08653969,4.079463482,15.11875057,-2.923131943,15.92995108,15.929951081376045
10.08904568,5.532804012,14.57049561,-2.691028118,15.81622252,15.816222522716957
10.09155167,6.899703979,14.36949825,-3.198605776,16.25790497,16.257904965426572
10.09405766,7.819146156,14.22562981,-4.242474556,16.77814592,16.778145918377202
10.09656365,8.305188179,13.94566917,-5.755336761,17.22154873,17.22154872594819
10.09906964,8.539685249,13.84038544,-7.287640572,17.82111664,17.82111664252307
10.10157568,8.678468704,14.30967808,-8.360222816,18.70764633,18.707646333323357
10.10408167,8.53729248,15.07807255,-8.925228119,19.49085251,19.49085251312308
10.10658766,7.912466049,15.69811249,-9.071190834,19.78191997,19.78191997436339
10.10909365,6.777669907,16.55025673,-8.625826836,19.85579754,19.855797536281976
10.11159964,5.26690197,18.58774567,-7.756932735,20.81861068,20.81861068634284
10.11410563,3.382853031,21.14477539,-6.995417118,22.52734076,22.527340756904774
10.11661162,1.1395818,21.62364006,-5.973382473,22.4624521,22.462452098826425
10.11911761,-0.555433929,17.41944885,-2.195414782,17.56603402,17.566034018875026
10.1216236,-0.03349951655,9.794121742,2.236092806,10.04619599,10.046195994095035
10.12412959,2.236092806,2.396411896,2.688635349,4.239299594,4.239299594535354
10.12663563,5.202295303,-2.963809967,-0.01914258115,5.987354373,5.987354372217957
10.12914162,8.379365921,-6.028417587,-3.344567776,10.85088593,10.85088592924673
10.13164761,11.51097202,-6.744170666,-5.63090992,14.4807963,14.480796295249519
10.1341536,14.23280811,-5.149653435,-6.519245148,16.48005809,16.480058085346986
10.13665959,16.26311874,-1.742872238,-6.480959892,17.59344981,17.593449801305116
10.13916558,17.3620224,2.604886532,-6.181558132,18.61281592,18.61281592349723
10.14167157,17.51994896,6.964310169,-5.88694191,19.75110915,19.751109152216145
10.14417756,16.86401558,10.53170967,-5.638088226,20.6663971,20.6663970952804
10.14668355,15.6741848,13.08126259,-5.168796062,21.05981844,21.059818442323554
10.14918954,13.83320713,14.59681606,-3.797110319,20.46564696,20.46564695692792
10.15169553,11.41496086,14.90818214,-2.315055847,18.91863393,18.918633928734806
10.15420152,8.599505424,13.95045471,-1.738086581,16.47991581,16.479915810349848
10.15670756,5.647659779,12.10229874,-1.860120535,13.48412934,13.48412934439108
10.15921355,2.839383125,9.873384476,-1.924726725,10.45229116,10.452291160668162
10.16171954,0.4405784607,7.670791149,-1.915155411,7.918520473,7.9185204729098295
10.16422552,-1.338186026,5.709873199,-2.11645174,6.234802464,6.234802463317438
10.16673152,-2.659921408,4.096213341,-2.480160713,5.477713281,5.4777132814735525
10.1692375,-3.684647799,2.892025232,-2.753241539,5.433302708,5.433302708047407
10.17174349,-4.42672205,2.082952023,-2.877668381,5.675872844,5.675872844689454
10.17424948,-4.829015255,1.568196177,-2.954238653,5.874193868,5.874193868222208
10.17675547,-4.807479858,1.24965167,-3.035594702,5.821368145,5.821368144707905
10.17926146,-4.266402721,1.134796143,-3.112463951,5.401609604,5.401609603645789
10.1817675,-3.287140131,1.259222865,-3.119642496,4.703520146,4.70352014638171
10.18427349,-2.068595171,1.647159338,-3.021237612,4.014984007,4.01498400674381
10.18677948,-0.7109674215,2.233700037,-2.894418001,3.724586701,3.7245867011308778
10.18928547,0.6128616929,2.88006115,-2.813062191,4.072305314,4.072305314290334
10.19179146,1.807478428,3.478565931,-2.801098108,4.81804419,4.818044189776638
10.19429745,2.803490877,3.935894251,-2.810669184,5.590231293,5.590231293458644
10.19680344,3.574278831,4.29750967,-2.872882605,6.284704686,6.284704685789923
10.19930943,4.103391647,4.529613495,-2.973381281,6.796779948,6.796779948251722
10.20181542,4.386044025,4.630111694,-3.117249727,7.098771891,7.098771890167717
10.20432141,4.510470867,4.594219685,-3.258426189,7.215853601,7.215853600597666
10.20682745,4.558327198,4.52482748,-3.370888948,7.253640663,7.253640662973196
10.20933344,4.551148891,4.433900356,-3.457030535,7.233497682,7.23349768195925
10.21183943,4.496113777,4.290330887,-3.483351469,7.124304575,7.124304574641645
10.21434542,4.448257446,4.139284134,-3.466601849,6.995569729,6.995569728575993
10.21685141,4.409972191,3.964607954,-3.44985199,6.860572112,6.860572112238189
10.2193574,4.371686935,3.811467409,-3.39960289,6.722814164,6.7228141635192635
10.22186339,4.350151539,3.694219112,-3.337389469,6.611296524,6.611296523944622
10.22436938,4.338187218,3.583850145,-3.265604734,6.505999115,6.505999114583272
10.22687537,4.350151539,3.492922783,-3.196212769,6.429627053,6.429627053335456
10.22938136,4.376472473,3.466601849,-3.083451033,6.377970677,6.377970677208051
10.23188735,4.388436794,3.435495138,-2.951845884,6.306694734,6.30669473345923
