Time (s),Acceleration x (m/s^2),Acceleration y (m/s^2),Acceleration z (m/s^2),Absolute acceleration (m/s^2),magnitude
6.518471821,-3.538386583,17.97966957,-3.76361084,18.70704317,18.707043165933623
6.520977863,-4.067499161,17.30937958,-4.419543266,18.32188673,18.321886735522156
6.523483904,-4.354937077,17.28066635,-4.910371304,18.48509272,18.485092717857768
6.525989946,-4.29750967,17.53430557,-5.324329376,18.82203349,18.822033484456803
6.528495988,-3.80907464,17.92702675,-5.947061539,19.26797547,19.267975468558177
6.531002029,-2.978166819,18.51117516,-6.607779503,19.87953302,19.879533026866113
6.533508071,-1.960619092,19.23410606,-6.971488953,20.5522875,20.552287497333346
6.536014113,-0.9936196208,19.93101692,-6.851847649,21.09930169,21.09930168563102
6.538520154,-0.2033899277,20.2803688,-6.143272877,21.19137862,21.191378618862608
6.541026196,0.4453641176,20.02433586,-5.044369221,20.654734,20.654734001412358
6.543532238,1.261615753,19.59811401,-4.010071754,20.04391236,20.043912355860186
6.546038279,2.228914261,19.29392624,-3.356531858,19.71014852,19.71014851925826
6.548544321,3.002095222,19.08335876,-3.16032052,19.57485079,19.574850780375236
6.551050363,3.332603693,18.57338905,-3.083451033,19.12026931,19.12026930903866
6.553556404,2.951845884,16.25833321,-2.813062191,16.7618648,16.76186480618163
6.556062446,1.927119493,11.43171024,-2.023131609,11.76821355,11.768213545774753
6.558568488,1.520339727,6.490531445,-1.242473125,6.781015469,6.781015468967424
6.561074529,2.274377823,3.028416157,-1.898405671,4.23651307,4.23651307013419
6.563580571,3.995714664,1.812264085,-3.694219112,5.735616065,5.7356160643257486
6.566086613,6.404090881,3.028416157,-4.711467743,8.507738403,8.507738402502484
6.568592654,8.858229637,5.784050465,-4.697110653,11.57524603,11.57524602632782
6.571098696,10.87627602,9.090332985,-4.395615101,14.84078724,14.840787241839474
6.573604738,12.40857983,12.38465214,-4.240081787,18.03692755,18.036927553958257
6.576110779,13.43091393,15.47797298,-4.345366001,20.94849165,20.9484916461144
6.578616821,14.03420353,18.28864288,-4.766502857,23.54045192,23.540451920033913
6.581122863,14.15863037,20.69462585,-5.520840168,25.67516367,25.675163664256882
6.583628904,13.6103754,22.3130703,-6.555137634,26.94596916,26.945969163167067
6.586134946,12.19561863,22.53321075,-8.036892891,26.85275308,26.852753076988677
6.588640988,10.24427223,21.60180473,-9.614660263,25.76867814,25.768678140104722
6.591147029,8.333902359,20.24686813,-10.73988533,24.38718382,24.38718381659729
6.593653071,6.416054726,18.50878143,-11.69043446,22.81243096,22.81243095625925
6.596159113,4.203890324,16.31336784,-12.29611778,20.85649004,20.856490035454172
6.598665154,1.802692771,14.22802258,-12.05892849,18.73777158,18.73777158817289
6.601171196,-0.5721837282,12.46361542,-11.12782192,16.71817945,16.718179453508423
6.603677238,-2.772384167,11.0440731,-9.88534832,15.0790509,15.079050899022217
6.606183279,-4.601397991,10.06959629,-8.422436714,13.91068198,13.91068197884258
6.608689321,-5.990132332,9.406484604,-6.792026997,13.05738368,13.05738368464899
6.611195363,-6.856633186,8.982656479,-5.288437366,12.4767426,12.476742597376216
6.613701404,-7.038786888,8.721838951,-4.199104786,11.96860378,11.968603784304566
6.616207446,-6.461817741,8.417651176,-3.629313707,11.21534029,11.215340290090827
6.618713488,-5.314758301,8.075178146,-3.430709362,10.25792009,10.257920092016649
6.621219529,-3.833002806,7.792825222,-3.394817114,9.324420555,9.324420555131054
6.623725571,-2.224128723,7.632505894,-3.519243956,8.694076881,8.694076881432604
6.626231613,-0.5602195859,7.627720356,-3.816252947,8.547499656,8.547499655995836
6.628737654,1.141974568,7.81196785,-4.26879549,8.97516365,8.975163649696686
6.631243696,2.875275612,8.111070633,-4.781158924,9.844600414,9.844600414187557
6.633749738,4.577469826,8.482256889,-5.242973328,10.97226874,10.972268737915957
6.636255779,6.236593246,8.932407379,-5.61655283,12.25678027,12.256780270227882
6.638761821,7.800003529,9.317950249,-5.937490463,13.52471977,13.524719771347115
6.641267863,9.282057762,9.533304214,-6.143272877,14.65538424,14.655384238397112
6.643773904,10.65613651,9.624231339,-6.315556049,15.68646941,15.686469405012883
6.646279946,11.89861012,9.593125343,-6.495316982,16.60705029,16.607050289889923
6.648785988,13.04058456,9.466305733,-6.619743824,17.42092989,17.420929888858552
6.651292029,14.00070477,9.166903496,-6.794419765,18.06145048,18.061450487286464
6.653798071,14.81934929,8.882157326,-6.978667259,18.63350823,18.633508227241524
6.656304113,15.49472332,8.561220169,-7.146463871,19.09064921,19.090649213815453
6.658810154,16.09322739,8.264510155,-7.313961506,19.51379329,19.513793297039765
6.661316196,16.55265045,8.003393173,-7.507780075,19.85979106,19.85979105771446
6.663822238,16.82812309,7.780860901,-7.709076405,20.0787794,20.07877939793725
6.666328279,16.92862129,7.550850868,-7.883752346,20.14316556,20.143165557182865
6.668834321,16.90230179,7.316354275,-8.010572433,20.08447451,20.08447451097209
6.671340363,16.76351738,7.065107822,-8.087141991,19.90811717,19.90811716533342
6.673846404,16.47607994,6.789634228,-8.113463402,19.58031235,19.580312344671448
6.676352446,16.05015755,6.444768906,-8.079963684,19.09000829,19.09000829665418
6.678858488,15.49233055,6.006882191,-7.972286701,18.42965802,18.429658020971463
6.681364529,14.81217003,5.573482037,-7.759325504,17.62586779,17.625867788322275
6.683870571,14.10838127,5.195116997,-7.553243637,16.82519397,16.825193969523387
6.686376613,13.4285202,4.843372345,-7.373782158,16.06723604,16.067236033237265
6.688882654,12.80369473,4.503292084,-7.160820961,15.3457354,15.34573540656634
6.691388696,12.11665535,4.108177185,-6.906882763,14.53944587,14.539445868253187
6.693894738,11.4699955,3.701397419,-6.602993965,13.74265873,13.742658728398464
6.696400779,10.9049902,3.32063961,-6.286842346,13.01805843,13.01805843300205
6.698906821,10.4216404,2.94227457,-5.978168488,12.3695621,12.369562107976863
6.701412863,9.940383911,2.533101797,-5.724229813,11.74711215,11.747112154230516
6.703918904,9.585947037,2.154736757,-5.461019516,11.24081871,11.240818708718189
6.706424946,9.296415329,1.781157374,-5.132903576,10.76766264,10.767662637765651
6.708930988,9.066405296,1.505982757,-4.80508709,10.37094745,10.370947449399347
6.711437029,8.38175869,1.448554993,-4.079463482,9.433674396,9.433674395807145
6.713943071,7.093822002,2.607279301,-2.456232548,7.946904698,7.946904698015254
6.716449165,6.210271835,5.140082359,-1.795514345,8.259043207,8.259043206388865
6.718955207,5.269294739,6.983452797,-1.371685624,8.855258407,8.855258407605533
6.721461196,4.036392689,2.985345364,1.103689432,5.140319371,5.140319371836484
6.72396729,5.606981754,-5.259723186,3.768396616,8.561760651,8.561760650620593
6.726473332,9.528518677,-11.67846966,4.203890324,15.64774794,15.647747941275739
6.728979321,14.02463245,-15.01107407,3.136392355,20.78123233,20.781232328645043
6.731485363,18.25035667,-15.91346741,-0.06460621208,24.21400705,24.214007052819344
6.733991404,22.16710854,-13.99352551,-4.409972191,26.58283867,26.582838673635948
6.736497498,25.74617386,-9.827920914,-8.065607071,28.71423889,28.714238895449608
6.73900354,28.94717216,-4.575077057,-10.61545849,31.1698262,31.169826196035807
6.741509582,31.39383316,1.611266971,-10.17009449,33.03936688,33.03936687748843
6.744015623,33.13431168,7.934001446,-8.422436714,35.09655865,35.0965586582766
6.746521665,33.1630249,13.41894913,-7.663612843,36.58668307,36.58668307019567
6.749027707,30.71397209,16.82094574,-7.500601768,35.81272573,35.81272572725298
6.751533748,26.0907402,16.45215034,-7.931608677,31.84824001,31.848240001590664
6.75403979,19.3011055,12.09990597,-8.149654388,24.19415765,24.194157655285697
6.756545832,11.89143085,6.7202425,-7.36899662,15.51998383,15.519983830684536
6.759051873,4.759324074,2.267199516,-5.827121258,7.857906938,7.857906937737434
6.761557915,-1.687837243,-0.6774678826,-3.583850145,4.018922636,4.01892263581036
6.764063957,-7.139285564,-2.346162558,-0.8018946648,7.557573167,7.5575731664559225
6.766569998,-11.54207897,-3.133999348,1.864906192,12.1045204,12.104520393966075
6.76907604,-14.92493248,-3.871287823,3.909573078,15.90676713,15.906767132050732
6.771582082,-17.40748596,-5.008476734,4.943870544,18.77624197,18.776241972195802
6.774088123,-19.01157379,-6.59342289,4.709074974,20.66612084,20.66612083797402
6.776594165,-19.60529327,-8.231010437,3.35413909,21.52596818,21.525968179196408
6.779100207,-18.90868187,-9.282057762,1.110867858,21.09333719,21.093337188693223
6.781606248,-16.2702961,-8.958727837,-1.771586061,18.65797033,18.65797032934299
6.78411229,-11.96800137,-7.120142937,-4.716253281,14.70280712,14.702807121300888
6.786618332,-7.752147198,-4.845765114,-7.024429798,11.52908668,11.529086681370256
6.789124373,-4.136891365,-2.614457846,-8.757730484,10.03230299,10.032302987086535
6.791630415,-1.034297585,-0.4262215197,-10.09830952,10.16008324,10.160083239812304
6.794136457,1.762014747,1.793121457,-11.1445713,11.42459846,11.424598460733007
6.796642498,4.28315258,3.892823458,-11.93928814,13.26823544,13.268235443669983
6.79914854,6.591030121,5.896812439,-12.43729401,15.26107326,15.261073267888348
6.801654582,8.784051895,7.685148239,-12.49950695,17.10142524,17.101425237171206
6.804160623,10.82841969,8.958727837,-12.01825047,18.49193937,18.49193937368046
6.806666665,12.72951698,9.559625626,-11.05364418,19.3806629,19.38066289659443
6.809172707,14.39342594,9.377771378,-9.674481392,19.71570178,19.715701775804362
6.811678748,15.81775379,8.5588274,-7.92443037,19.6532811,19.653281102987066
6.81418479,16.9046936,7.306783199,-5.939883232,19.35045114,19.35045113781238
6.816690832,17.57258987,5.839085579,-3.823431492,18.90792066,18.907920655432466
6.819196873,17.68774414,4.307080746,-1.663909078,18.28047676,18.280476764420534
6.821702915,17.24238014,2.91116786,0.2656033039,17.48842807,17.4884280687661
6.824208957,16.34926033,1.762014747,1.7883358,16.54089339,16.54089339305223
6.826714998,15.15703583,0.9816554785,2.808276415,15.44622281,15.44622280861629
6.82922104,13.75902939,0.50518471,3.232105255,14.14258129,14.142581296407675
6.831727082,12.23629665,0.2177468538,3.081058264,12.62011448,12.620114477503908
6.834233123,10.73031425,0.009571290575,2.472982168,11.0116019,11.011601896027766
6.836739165,9.29402256,-0.1339980662,1.568196177,9.426348714,9.426348713955564
6.839245207,7.996214867,-0.1962114573,0.4980062246,8.01411014,8.014110139931192
6.841751248,6.923632145,-0.1579262912,-0.6224330068,6.953347801,6.953347800928959
6.84425729,6.109773636,-0.04307080805,-1.747657895,6.354958465,6.354958465294842
6.846763332,5.568696499,0.2273181528,-2.894418001,6.280104283,6.280104282978117
6.849269373,5.31715107,0.6272186637,-3.990929127,6.67780009,6.677800090601151
6.851775415,5.401198864,1.115653515,-5.013262749,7.453216441,7.453216441545072
6.854281457,5.738586903,1.66151619,-5.954239845,8.43474883,8.434748829971221
6.856787498,6.26530695,2.169093609,-6.736992359,9.452306824,9.452306824661763
6.85929354,6.942774773,2.573779821,-7.230212688,10.34903085,10.34903085459253
6.861799582,7.704290867,2.918346405,-7.378567696,11.05966115,11.059661149753675
6.864305623,8.544470787,3.277568817,-7.172784805,11.62752253,11.62752253228976
6.866811665,9.416056633,3.626920938,-6.701099873,12.11286166,12.11286165669726
6.869317707,10.25862885,3.921537161,-6.02363205,12.52605535,12.526055351184723
6.871823748,11.00818062,4.172783375,-5.231009483,12.8823764,12.88237640610054
6.87432979,11.59950733,4.41236496,-4.378865242,13.16024299,13.160242993446406
6.876835832,12.00628662,4.675575256,-3.593421459,13.37627004,13.376270039069642
6.879341873,12.27218914,4.946263313,-3.037987471,13.5757694,13.575769404472686
6.881847915,12.38943768,5.197509766,-2.791526794,13.72242309,13.722423096373653
6.884353957,12.39422321,5.451447964,-2.860918522,13.83907182,13.839071813999128
6.886859998,12.2171545,5.781657696,-3.148356438,13.87798898,13.877988977199914
6.88936604,11.95125198,6.207879066,-3.670290947,13.95855373,13.95855372247301
6.891872082,11.56122208,6.681957245,-4.390829563,14.05666364,14.056663646057777
6.894378123,10.99860954,7.141678333,-5.26690197,14.13199341,14.131993404577097
6.896884165,10.21555805,7.514958382,-6.337091446,14.17712784,14.17712783856724
6.899390207,9.054440498,7.790432453,-7.481459141,14.09418183,14.094181828507484
6.901896248,7.522137165,8.001000404,-8.599505424,13.94811989,13.948119892347062
6.90440229,5.815157413,8.125427246,-9.638588905,13.88311996,13.88311995725734
6.906908332,4.086641788,8.190332413,-10.43838978,13.88316129,13.883161287620148
6.909414373,2.35812664,8.192725182,-10.73270702,13.70665923,13.706659225909569
6.911920415,0.689432025,8.134998322,-10.38335514,13.20861757,13.208617572607773
6.914426457,-0.7731808424,8.123034477,-9.428020477,12.46872359,12.468723585207762
6.916932498,-1.872084618,8.056035995,-8.091927528,11.57081276,11.570812758319617
6.91943854,-2.506481647,7.962715626,-6.610172749,10.64808312,10.648083121337597
6.921944582,-2.62402916,7.73300457,-5.305186749,9.73806424,9.73806424059404
6.924450623,-2.16670084,7.371389389,-4.29750967,8.803440431,8.80344043076694
6.926956665,-1.254437327,6.806384087,-3.509672642,7.760043775,7.760043775723239
6.929462707,-0.1363908947,6.078666687,-2.813062191,6.699411173,6.699411172501233
6.931968748,1.10608232,5.216652393,-2.066202402,5.718922334,5.718922333275718
6.93447479,2.403590441,4.232903481,-1.271187067,5.030967645,5.030967645178863
6.936980832,3.804288864,3.165106058,-0.4908277392,4.973069675,4.973069674628629
6.939486873,5.31715107,2.02073884,0.1220339537,5.689496748,5.689496748091376
6.941992915,6.918846607,0.9074779749,0.4908277392,6.995346061,6.995346061181834
6.944498957,8.575576782,-0.1555334777,0.5626124144,8.595419742,8.595419741670558
6.947004998,10.21077251,-1.082154036,0.3951148391,10.27555587,10.275555865483861
6.94951104,11.78614712,-1.860120535,0.1387837082,11.93283592,11.932835926831256
6.952017082,13.30170155,-2.45383954,-0.1483550072,13.52695833,13.526958335912074
6.954523123,14.7212429,-2.872882605,-0.385543555,15.00390252,15.003902519535178
6.957029165,16.09801292,-3.105285645,-0.5530411601,16.40410539,16.404105383540266
6.959535207,17.30937958,-3.172284603,-0.6631109715,17.61015977,17.610159772343792
6.9620413,18.28624916,-3.114856958,-0.8162516356,18.56759298,18.567592976555183
6.964547342,18.80100632,-2.51844573,-1.034297585,18.99710975,18.9971097547488
6.967053384,18.25035667,-0.5721837282,-1.228116274,18.30057875,18.300578744495866
6.969559425,16.78505325,2.097309113,-1.5011971,16.9820585,16.98205849871731
6.972065415,14.92253971,5.171188831,-2.45383954,15.98263789,15.982637886483365
6.974571457,12.87069416,8.087141991,-3.907180309,15.69467081,15.694670806037662
6.97707755,10.28495026,9.200403214,-5.774479389,14.95901846,14.959018462614498
6.979583592,7.175177574,8.463114738,-9.047262192,14.31643941,14.31643941270936
6.982089634,4.072285175,7.840681553,-13.2203455,15.90085937,15.900859376192518
6.984595675,1.347757339,8.336295128,-16.33490372,18.38856563,18.388565627792037
6.987101717,0.01914258115,11.31924725,-17.53191185,20.8684848,20.8684848003207
6.989607759,0.5745765567,18.42742538,-19.32024765,26.70528251,26.70528250388503
6.9921138,2.578565598,29.660532,-24.14686966,38.33363371,38.33363371040165
6.994619842,4.99651289,43.0388031,-29.47149849,52.40107763,52.40107762810397
6.997125884,6.837490559,55.97410202,-32.43052292,65.05067402,65.05067402382873
6.999631925,6.949953556,63.16363907,-33.01706314,71.61056914,71.6105691458079
7.002137967,4.196712017,58.42315674,-31.58286667,66.54588719,66.54588719308833
7.004644009,0.6702894568,45.50939178,-25.54756927,52.19417903,52.194179021677094
7.00715005,-3.349353552,30.15853882,-3.318246841,30.52484881,30.524848813246372
7.009656092,-5.463412285,15.23360634,21.80788612,27.15686898,27.156868982650884
7.012162134,-0.06939185411,5.669195175,37.4677124,37.8942484,37.894248398019116
7.014668175,6.921239376,0.7301099896,42.26771545,42.83685778,42.83685777994197
7.017174217,11.89382362,-2.489732027,38.64558029,40.51101927,40.51101926415547
7.019680259,15.14746475,-5.018048286,29.69881821,33.71418544,33.7141854420917
7.0221863,17.54148293,-7.479066372,19.58615112,27.33600872,27.33600872248434
7.024692342,19.01396751,-10.77338505,9.226723671,23.72191425,23.721914248388362
7.027198384,19.33699799,-14.05813217,-1.225723386,23.93852479,23.938524791503767
7.029704425,18.69781494,-16.09083557,-10.51017475,26.81393381,26.813933805892823
7.032210467,16.87119484,-17.35962868,-16.77787399,29.45319981,29.453199806829815
7.034716509,14.0054903,-18.7935276,-19.51675797,30.50007016,30.500070161475275
7.03722255,11.17807102,-20.01955032,-19.67707825,30.21455072,30.214550719807153
7.039728592,8.853444099,-20.71376801,-18.71695709,29.28767898,29.287678984431636
7.042234634,7.591827869,-20.45982933,-18.06341743,28.32891661,28.328916602222563
7.044740675,8.051250458,-18.83450508,-19.37558174,28.19529009,28.195290090889518
7.047246717,10.26580715,-15.59282875,-22.79193497,29.46176173,29.461761735248057
7.049752759,13.62233925,-11.4197464,-27.37418938,32.63931645,32.639316455687435
7.0522588,17.00758553,-7.091429234,-31.42015457,36.42488775,36.42488774648162
7.054764842,20.14397812,-2.45383954,-33.48635483,39.15529521,39.15529520751658
7.057270884,22.80389977,2.355733871,-32.75116348,39.97756916,39.97756916177957
7.059776925,25.23381042,7.330711365,-29.28455925,39.3455198,39.34551979445946
7.062282967,27.88894653,12.4803648,-23.36172485,38.46196865,38.46196864516149
7.064789009,30.80489922,17.82652855,-14.90818214,38.58731437,38.58731437684847
7.06729505,33.52224731,22.76561356,-3.543172121,40.67638497,40.67638496910817
7.069801092,35.0638237,26.38296318,9.279664993,44.85136186,44.851361863428714
7.072307134,34.45574951,28.24308395,21.09452629,49.29350368,49.29350367646952
7.074813175,31.56372261,27.35504723,29.10988426,50.91122229,50.91122229515956
7.077319217,27.20160866,23.13410759,31.45604706,47.58778566,47.58778566311336
7.079825259,22.2628212,16.98365784,28.00380135,39.60165061,39.60165061534209
7.0823313,17.57737541,10.79970551,20.5247345,29.1009019,29.100901905306774
7.084837342,13.82602787,5.499304771,11.0440731,18.53032516,18.530325152692377
7.087343384,11.62104225,2.171486616,0.8763712645,11.85461951,11.854619508571059
7.089849425,10.70638561,0.8907282352,-8.705088615,13.82746027,13.82746026622388
7.092355467,10.46231747,1.113260746,-16.0070858,19.15531864,19.155318638441212
7.094861509,10.39292622,2.336591244,-21.20698929,23.73202412,23.73202411936402
7.09736755,10.0648098,3.749253988,-23.67518616,25.99753337,25.997533373136875
7.099873592,9.42323494,5.049154758,-23.97219467,26.24799874,26.247998738971457
7.102379634,8.365009308,6.238986015,-21.87010002,24.23220176,24.232201759293275
7.104885675,6.966702938,7.474280834,-18.09930992,20.78424508,20.784245076308352
7.107391717,5.142475128,8.455936432,-12.74866009,16.13927648,16.13927648547116
7.109897759,3.073879719,9.008976936,-7.35463953,12.02917805,12.029178050743871
7.1124038,0.9864411354,8.925228119,-2.597707987,9.347772455,9.347772455270887
7.114909842,-0.71336025,8.58754158,0.3879363835,8.625847661,8.625847661079577
7.117415884,-1.934298038,7.828717709,1.427019596,8.189427012,8.189427012580849
7.119921925,-2.362912416,6.655636311,0.4788636267,7.078853026,7.078853025947419
7.122427967,-1.771586061,5.650052547,-1.996810555,6.248908973,6.248908972608745
7.124934009,-0.4357928336,5.022833824,-5.156831741,7.211912966,7.211912965525906
7.12744005,1.45334065,4.862514496,-9.078369141,10.40062654,10.400626545021874
7.129946092,3.528815269,5.087440014,-12.57129192,14.01327812,14.01327811886402
7.132452134,5.568696499,5.638088226,-14.98953819,16.95537304,16.955373033100837
7.134958175,7.330711365,6.423233509,-15.64547062,18.43306835,18.433068348741177
7.137464217,8.685647011,8.214261055,-15.07807255,19.24221454,19.242214542574004
7.139970259,9.705587387,10.4168539,-13.7108736,19.76606503,19.766065025083158
7.1424763,10.6417799,12.21236897,-12.50668621,20.4647657,20.464765702418074
7.144982342,11.52054405,13.41894913,-10.9121685,20.78139919,20.78139919095705
7.147488436,12.43968678,14.29502201,-8.5588274,20.79295525,20.792955247243764
7.149994477,13.29930782,14.91296768,-6.432804585,20.99164521,20.991645203381147
7.152500519,13.82842159,14.90818214,-4.766502857,20.88537019,20.88537018766922
7.155006561,13.84277821,13.97677612,-3.833002806,20.04157403,20.041574034757275
7.15751255,13.27538013,12.35833073,-3.976572037,18.56817657,18.568176571583745
7.160018644,12.43729401,10.87627602,-4.924727917,17.24043524,17.240435244241606
7.162524686,11.62822056,10.0337038,-6.471388817,16.66642129,16.666421288295034
7.165030727,10.90259743,10.04566765,-8.309973717,16.99522675,16.99522675436047
7.167536769,10.25384331,10.60588741,-9.765408516,17.69150513,17.691505132802963
7.170042811,9.585947037,11.42453194,-10.36391354,18.16097504,18.160975042900215
7.172548852,8.946763992,12.27697468,-10.11745262,18.25189143,18.25189142910547
7.175054894,8.374580383,13.14826107,-9.411270142,18.20940338,18.20940337962523
7.177560936,7.922037601,14.18973732,-8.702695847,18.43486479,18.43486479385324
7.180066977,7.546065331,15.36521149,-8.247760773,19.00153635,19.00153635579991
7.182573019,7.165606499,16.48804283,-7.814360619,19.60269637,19.602696364179177
7.185079061,6.782455921,17.28545189,-7.153642178,19.89882287,19.898822874046424
7.187585102,6.408876419,17.75474358,-6.253343105,19.88489166,19.884891665141566
7.190091144,6.143272877,18.00120544,-5.441876888,19.7837616,19.78376159880921
7.192597186,6.042774677,18.14955902,-4.99651289,19.77085632,19.77085631623962
7.195103227,6.030810356,18.27189255,-5.008476734,19.88259465,19.882594652202755
7.197609269,6.112166405,18.51117516,-5.207081318,20.17760837,20.17760837708167
7.200115311,6.131309032,18.77438545,-5.283651352,20.4447419,20.444741893223984
7.202621352,6.042774677,19.13121605,-5.065904617,20.69255767,20.69255767026667
7.205127394,5.860620975,19.54307938,-4.529613495,20.89967053,20.899670530409736
7.207633436,5.568696499,19.87089729,-3.818645954,20.98678148,20.98678147619841
7.210139477,5.116153717,19.95494461,-3.064308405,20.82702161,20.82702161244124
7.212645519,4.632504463,19.93340874,-2.446661234,20.61036226,20.610362267305778
7.215151561,4.196712017,19.84218216,-2.195414782,20.3996184,20.399618395677862
7.217657602,3.82821703,19.81107521,-2.271985054,20.30506988,20.305069876527337
7.220163644,3.490530014,19.97648048,-2.37248373,20.41744968,20.417449674128516
7.222669686,3.112463951,20.2923317,-2.271985054,20.65497697,20.654976972988827
7.225175727,2.705385208,20.64916229,-2.137987137,20.9350902,20.93509019327122
7.227681769,2.367697954,20.9267292,-2.039881229,21.15880677,21.15880677259318
7.230187811,2.073380709,21.05145454,-2.025524378,21.25006812,21.25006811330289
7.232693852,1.867298961,21.08974075,-2.130808592,21.27919913,21.27919912890763
7.235199894,1.793121457,21.25005913,-2.128415823,21.43152938,21.43152937854989
7.237705936,1.668694735,21.37687874,-1.896012783,21.52557435,21.525574353697976
7.240211977,1.470090389,21.45105743,-1.525125384,21.55539464,21.555394639252363
7.242718019,1.20179522,21.44866371,-0.9337990284,21.50259211,21.502592107021112
7.245224061,0.7348956466,21.19741821,-0.2536391914,21.21166998,21.21166997717165
7.247730102,0.0143569354,20.70419693,0.3352942765,20.70691669,20.706916692005816
7.250236144,-0.7803592682,20.12004852,0.3017947674,20.1374376,20.13743760055509
7.252742186,-1.647159338,19.63879204,-0.2416750938,19.70922864,19.70922863853609
7.255248227,-2.451446772,19.36840439,-1.261615753,19.56364879,19.563648795629568
7.257754269,-3.284747362,19.3513546,-2.441875458,19.77946526,19.779465256661766
7.260260311,-4.223331928,19.5454731,-3.614956856,20.32067824,20.320678245266055
7.262766352,-5.259723186,19.94297981,-4.331008911,21.07474247,21.074742463018975
7.265272394,-6.317949295,20.47179413,-4.199104786,21.83216249,21.832162494794268
7.267778436,-7.632505894,20.73769569,-3.253640652,22.33592054,22.335920537227388
7.270284477,-9.035298347,20.42872238,-1.589731574,22.39411889,22.394118888131906
7.272790519,-10.51974583,19.45933151,0.3664009571,22.1238533,22.123853299216325
7.275296561,-11.91775227,17.85524178,1.98963201,21.55924659,21.55924659459519
7.277802602,-13.00469208,16.16501236,2.746062994,20.9277448,20.927744805916944
7.280308644,-13.76860046,14.70688629,2.35812664,20.28367877,20.28367876457276
7.282814686,-14.05813217,13.79970741,0.8500502706,19.71764667,19.71764666924897
7.285320727,-14.10359573,13.34716511,-1.259222865,19.45877363,19.458773630745963
7.287826769,-14.15863037,13.25145149,-2.968595505,19.61836741,19.618367409609185
7.290332811,-14.39342594,13.28495121,-3.323032379,19.86713827,19.8671382723891
7.292838852,-14.72842121,12.96162128,-2.403590441,19.76631642,19.766316413368305
7.295344894,-14.85284805,12.00867939,-0.9960124493,19.12609518,19.126095176155538
7.297850936,-14.0988102,10.7614212,0.1387837082,17.73707688,17.737076879156138
7.300356977,-12.29372501,9.985847473,0.9146564603,15.86472253,15.864722525650693
7.302863019,-10.12941647,9.961918831,1.434198022,14.27941976,14.279419763577526
7.305369061,-7.922037601,10.4096756,1.750050664,13.19782949,13.197829487285402
7.307875102,-5.843871117,10.91934681,2.001596212,12.54549129,12.545491293092383
7.310381144,-3.811467409,11.50110245,2.140379906,12.30381516,12.30381516104959
7.312887186,-1.93190515,12.06640625,2.190629244,12.41488114,12.414881142536307
7.315393227,-0.3664009571,12.52104282,2.331805706,12.74158863,12.741588629844063
7.317899269,0.8907282352,12.76540947,2.638386011,13.06560969,13.06560968607239
7.320405311,1.771586061,12.85155106,3.037987471,13.32404779,13.324047796869749
7.322911352,2.137987137,12.75823116,3.323032379,13.35612203,13.356122024070263
7.325417394,1.90079844,12.27697468,3.583850145,12.92985398,12.929853976928126
7.327923488,1.079761267,10.58674431,4.000500202,11.36877484,11.368774839235442
7.330429529,-0.1292124242,7.656434059,4.366901398,8.815186111,8.815186110924557
7.332935571,-1.005583763,5.128118038,3.916751623,6.53067658,6.530676579983375
7.335441561,-1.101296663,4.144069672,2.461018085,4.943963774,4.943963774242504
7.337947654,-0.2703889608,4.958227634,0.766002357,5.024329913,5.02432991269615
7.340453696,1.165902853,7.115357399,-0.3664009571,7.219549158,7.219549157634525
7.342959738,2.705385208,9.866206169,-0.9696913958,10.27625587,10.276255869525993
7.345465779,4.041178226,12.69601822,-1.460519075,13.40347403,13.403474029717346
7.347971821,4.946263313,15.35803318,-1.984846354,16.2565162,16.256516200234838
7.350477863,5.293222904,17.6949234,-2.396411896,18.62448155,18.624481544960872
7.352983904,4.99651289,19.52872276,-2.441875458,20.3051449,20.30514490096687
7.355489946,4.081856251,20.80948067,-2.087737799,21.30855897,21.308558968787747
7.357995988,2.652743101,21.49891281,-1.570588946,21.71881782,21.718817822551543
7.360502029,0.9409775138,21.7289238,-1.051047325,21.77467034,21.77467034577271
7.363008071,-0.794716239,21.53001976,-0.7636095285,21.55821014,21.55821013624593
7.365514113,-2.425125837,21.00808525,-0.8377870321,21.16418598,21.164185982638394
7.368020154,-3.806681633,20.25404739,-1.3310076,20.65160628,20.651606280448092
7.370526196,-4.91754961,19.2891407,-2.236092806,20.03130935,20.03130934682635
7.373032238,-5.77208662,18.24317932,-3.524029493,19.45634497,19.456344968107256
7.375538279,-6.396912098,17.23041725,-5.034798145,19.05667745,19.056677448063493
7.378044321,-6.830312252,16.38754463,-6.626922131,18.95048499,18.95048499090197
7.380550363,-7.050751209,15.76032639,-8.106285095,19.07387843,19.07387843549299
7.383056404,-7.057929516,15.31496239,-9.296415329,19.25579861,19.25579860793119
7.385562446,-6.866204739,15.02782345,-10.10070229,19.36503116,19.365031162212137
7.388068488,-6.451947212,14.86959839,-10.47667503,19.30008546,19.300085460705883
7.390574529,-5.865406513,14.79302788,-10.38335514,19.00133499,19.001334989535987
7.393080571,-5.132903576,14.76909924,-9.813264847,18.46004221,18.460042211188146
7.395586613,-4.321437836,14.65424442,-8.788837433,17.62570191,17.625701912696
7.398092654,-3.49531579,14.47478199,-7.421638489,16.6378263,16.637826300068706
7.400598696,-2.762812853,14.18734455,-5.918347836,15.61860177,15.618601773174275
7.403104738,-2.106880426,13.89542007,-4.309473515,14.70010905,14.700109048156996
7.405610779,-1.582553029,13.56730461,-2.676671267,13.91908034,13.919080341089627
7.408116821,-1.163509965,13.28973675,-1.232901812,13.39742159,13.397421587790232
7.410622863,-0.8644071817,13.01426315,-0.2225325108,13.04483675,13.044836749901679
7.413128904,-0.737288475,12.71037483,0.3424727321,12.73634603,12.736346029638852
7.415634946,-0.7995018363,12.41575813,0.4118646085,12.44828846,12.448288460051167
7.418140988,-1.000798106,12.09990597,-0.03589234129,12.1412771,12.14127709888783
7.420647029,-1.309472203,11.74068356,-0.8500502706,11.84402606,11.844026062493745
7.423153071,-1.620838284,11.3575325,-1.888834357,11.62705279,11.627052784761059
7.425659113,-1.876870275,11.02014446,-2.949453115,11.56137966,11.56137965928074
7.428165154,-2.047059774,10.71834946,-3.964607954,11.60997782,11.609977824868198
7.430671196,-2.042274237,10.45753193,-4.960620403,11.7532384,11.753238400915015
7.433177238,-1.833799481,10.32084274,-5.819942951,11.98976027,11.989760270882032
7.435683279,-1.438983679,10.25384331,-6.428019047,12.18734612,12.187346123051356
7.438189321,-0.8931210637,10.15573788,-6.921239376,12.32234684,12.322346839039405
7.440695363,-0.1722832322,9.9643116,-7.407281399,12.41712547,12.417125468399007
7.443201404,0.6942176819,9.715159416,-7.876574039,12.52623963,12.526239629673578
7.445707446,1.6926229,9.44237709,-8.278866768,12.67134927,12.671349271236117
7.448213488,2.827419043,9.267701149,-8.575576782,12.93928515,12.939285149337751
7.450719529,4.074677944,9.133403778,-8.815158844,13.33150743,13.331507430304203
7.453225571,5.384449005,9.018548965,-9.016156197,13.84260052,13.84260051761408
7.455731613,6.717849731,8.865407944,-9.159725189,14.40921679,14.409216792034053
7.458237654,8.079963684,8.726624489,-9.310771942,15.10398167,15.103981669172796
7.460743696,9.435198784,8.580363274,-9.569196701,15.94412542,15.94412542317177
7.463249738,10.75902748,8.467900276,-9.904491425,16.89854899,16.898548984678378
7.465755779,12.023036,8.309973717,-10.21316528,17.83024966,17.830249658126615
7.468261821,13.28255844,8.173583031,-10.52692413,18.81621508,18.81621507943196
7.470767863,14.52503204,8.125427246,-10.90738297,19.89899814,19.8989981392861
7.473273904,15.73879051,8.115856171,-11.32642555,21.02057478,21.020574774389914
7.475779946,16.81137276,8.152048111,-11.53729343,21.95876322,21.958763220401323
7.47828604,17.74038696,8.197511673,-11.55165005,22.70156704,22.701567038360462
7.480792082,18.48246193,8.171190262,-11.2378912,23.12271498,23.122714977154832
7.483298123,18.91586113,7.986643791,-10.52692413,23.07406364,23.074063642378643
7.485804165,19.06900215,7.66839838,-9.454340935,22.62334501,22.623345005244204
7.488310207,18.92782593,7.223034382,-8.262117386,21.87915455,21.879154549935837
7.490816248,18.54945946,6.693921566,-7.024429798,20.93403081,20.934030815324927
7.49332229,17.89352798,6.035595894,-5.755336761,19.74159727,19.74159726565281
7.495828332,17.04586983,5.348556995,-4.546362877,18.43469977,18.434699769712317
7.498334373,16.1195488,4.756931305,-3.706183195,17.21057938,17.210579386847233
7.500840415,15.0589304,4.16081953,-3.174677372,15.94247096,15.942470961854138
7.503346457,13.90499115,3.651148319,-2.88006115,14.66200584,14.66200583674192
7.505852498,12.79651642,3.303889751,-2.954238653,13.54230578,13.54230578568405
7.50835854,11.8722887,3.184248686,-3.401995659,12.7539897,12.753989694769839
7.510864582,11.02493,3.174677372,-4.110570431,12.18706065,12.187060646004857
7.513370623,10.28495026,3.246462107,-4.958227634,11.87028809,11.870288089739955
7.515876665,9.65055275,3.253640652,-5.750551224,11.69564813,11.69564813307614
7.518382707,9.169296265,3.256033421,-6.430411816,11.66310181,11.66310180686786
7.520888748,8.886942863,3.258426189,-7.101000309,11.83297512,11.832975114813932
7.52339479,8.800801277,3.263211966,-7.697112083,12.13870627,12.138706268402537
7.525900832,8.827122688,3.232105255,-8.09671402,12.40650544,12.406505440697936
7.528406873,9.032905579,3.169891834,-8.290831566,12.66410224,12.664102237986363
7.530912915,9.363413811,3.064308405,-8.221439362,12.83181863,12.831818631044554
7.533418957,9.772586823,2.937488794,-7.967501163,12.94655817,12.94655816850004
7.535924998,10.22273636,2.793919563,-7.455138206,12.95721463,12.95721462665264
7.53843104,10.64417267,2.616850615,-6.760920525,12.87852341,12.878523413628097
7.540937082,11.07278633,2.499303341,-5.942276001,12.81264057,12.81264056985246
7.543443123,11.45803165,2.46819663,-5.101797104,12.78306762,12.783067612554035
7.545949165,11.71196938,2.408375978,-4.321437836,12.71398154,12.713981539229849
7.548455207,11.81007481,2.27677083,-3.64127779,12.56664061,12.566640616094768
7.550961248,11.74307632,2.099701881,-3.083451033,12.3213741,12.321374100291267
7.55346729,11.52532959,1.848156333,-2.669492722,11.973934,11.97393399773644
7.555973332,11.11585712,1.58016026,-2.415554523,11.48451521,11.484515210191665
7.558479373,10.55563831,1.407876968,-2.338984251,10.90295671,10.902956709764126
7.560985415,9.887741089,1.37886405,-2.410768747,10.2703698,10.270369801666991
7.563491457,9.119047165,1.400399446,-2.504088879,9.559738538,9.55973853825423
7.565997498,8.293224335,1.448554993,-2.542673111,8.794377066,8.794377066500152
7.56850354,7.538887024,1.505982757,-2.552244425,8.100416855,8.100416855320502
7.571009582,6.921239376,1.58016026,-2.554637194,7.544973966,7.544973965504741
7.573515623,6.444768906,1.687837243,-2.542673111,7.130850395,7.1308503952898
7.576021665,6.179165363,1.8840487,-2.585743904,6.958289706,6.958289705404898
7.578527707,6.138487339,2.14995122,-2.762812853,7.066572855,7.0665728553624065
7.581033748,6.325127602,2.50169611,-3.177070379,7.507296371,7.507296370964091
7.58353979,6.681957245,2.925524712,-3.770789385,8.211339723,8.211339723246102
7.586045832,7.151249409,3.3852458,-4.429114819,9.067376429,9.067376429597807
7.588551873,7.663612843,3.895216227,-4.998905659,9.944482341,9.944482341985474
7.591057915,8.144868851,4.42672205,-5.468197823,10.76271082,10.76271081741994
7.593563957,8.506185532,4.951049328,-5.738586903,11.39295666,11.39295665735539
7.596069998,8.700303078,5.484947681,-5.736194134,11.77641065,11.776410652456866
7.59857604,8.772088051,5.99491787,-5.513661385,11.97033963,11.97033963223193
7.601082082,8.72423172,6.5288167,-5.089832783,12.02680607,12.026806074987432
7.603588175,8.613862038,7.086643219,-4.548755646,12.04617405,12.046174050299667
7.606094217,8.532505989,7.68275547,-3.943072557,12.13986043,12.139860429753808
7.608600259,8.510971069,8.305188179,-3.342175007,12.35244563,12.35244562843212
7.6111063,8.640183449,8.968298912,-2.758027315,12.75499393,12.754993926993459
7.613612342,8.863015175,9.655338287,-2.274377823,13.30230769,13.302307691165565
7.616118384,9.190832138,10.33519936,-1.939083695,13.96595098,13.965950980010382
7.618624425,9.60030365,10.96510983,-1.778764486,14.68207978,14.682079786352505
7.621130467,10.09113121,11.60429287,-1.766800404,15.47940974,15.479409736089535
7.623636509,10.66810036,12.29372501,-1.888834357,16.38632769,16.38632768928765
7.62614255,11.19003487,12.88983631,-1.912762642,17.17624585,17.176245847537263
7.628648592,11.62822056,13.4285202,-1.922333837,17.8671776,17.86717760405067
7.631154634,12.00867939,13.82124233,-1.919941068,18.40981515,18.40981515227645
7.633660675,12.27697468,14.02702522,-1.939083695,18.74144043,18.74144043002277
7.636166717,12.43250847,13.99591827,-2.061416626,18.83354544,18.833545433165014
7.638672759,12.61196995,13.80927849,-2.379662037,18.85260591,18.85260591654158
7.6411788,12.74387455,13.5601263,-2.875275612,18.82951337,18.829513367664372
7.643684842,12.80369473,13.28255844,-3.660719633,18.80855724,18.808557246170604
7.646190884,12.83719444,12.95205021,-4.845765114,18.86877329,18.86877328478954
7.648696925,12.80369473,12.55932808,-6.396912098,19.04184352,19.04184352812629
7.651202967,12.68883896,12.023036,-8.106285095,19.26841682,19.26841682265383
7.653709009,12.38704491,11.26899815,-9.688838005,19.34690628,19.34690628483512
7.65621505,11.83878899,10.4216404,-10.72074318,19.07096871,19.07096871446686
7.658721092,11.05364418,9.557232857,-11.26181984,18.44864048,18.448640482419997
7.661227134,10.04088211,8.338687897,-11.44845963,17.36145896,17.36145896202943
7.663733175,8.566005707,6.617351055,-10.85234833,15.32772824,15.327728241103442
7.666239217,6.70588541,4.567898273,-9.174081802,12.2473822,12.247382196792701
7.668745259,4.768895626,2.394019127,-6.650850773,8.526869829,8.526869828772952
7.6712513,2.892025232,0.1459621787,-3.473780155,4.522417879,4.52241787823807
7.673757342,1.340578914,-2.02073884,-0.3927220106,2.456576451,2.4565764514371766
7.676263384,0.2201396823,-4.177569389,1.915155411,4.600909446,4.600909445741739
7.678769425,-0.4740779996,-6.238986015,3.143570662,7.002266273,7.002266272576146
7.681275467,-0.8138588071,-8.070392609,3.157927752,8.704373079,8.704373079558794
7.683781509,-0.8377870321,-9.533304214,1.982453585,9.773223551,9.773223550318718
7.68628755,-0.4788636267,-10.4790678,0.05982056633,10.49017402,10.490174013338823
7.688793592,0.3376871049,-10.75902748,-2.090130568,10.96537052,10.965370522125502
7.691299634,1.572981834,-10.31366348,-4.060320854,11.19518342,11.195183413692114
7.693805675,3.22492671,-9.308379173,-5.602196217,11.33272595,11.332725954816905
7.696311717,5.164010525,-7.835896015,-6.658029079,11.50641657,11.506416569767204
7.698817759,7.349853992,-6.040381432,-7.196712971,11.92892448,11.928924475187541
7.7013238,9.693623543,-4.069892406,-7.297211647,12.79764273,12.797642728679872
7.703829842,12.12862015,-2.032702923,-7.053143978,14.17681727,14.176817269421104
7.706335884,14.51546001,-0.1100698411,-6.583851337,15.93919048,15.939190478175034
7.708841925,16.76830292,1.599302888,-5.865406513,17.83638826,17.83638825847847
7.711347967,18.69063759,2.932703257,-5.013262749,19.57226316,19.572263162568873
7.713854009,20.21336937,3.773182154,-3.971786499,20.94259518,20.942595179417403
7.71636005,21.35055733,4.139284134,-2.786741018,21.92591838,21.92591838316025
7.718866092,22.01127625,4.053142548,-1.54905355,22.43487939,22.43487939724637
7.721372134,22.01127625,3.4809587,-0.5003990531,22.29044088,22.290440884766348
7.723878175,21.09691811,2.489732027,0.1651047617,21.24396335,21.24396335170656
7.726384217,19.42822456,1.321436286,0.3735794425,19.47669544,19.47669543355862
7.728890259,17.43380737,0.2584248483,0.1555334777,17.43641631,17.436416302645753
7.731396352,15.36281872,-0.579362154,-0.36161533,15.37799158,15.377991584597806
7.733902394,13.41416359,-1.120439172,-0.8859425783,13.48999863,13.489998628965036
7.736408436,11.64975643,-1.410269856,-1.213759303,11.79741063,11.79741063075655
7.738914477,10.09113121,-1.37886405,-1.15393877,10.25006194,10.250061943750758
7.741420519,8.544470787,-0.7037889361,0.1938186288,8.575597096,8.575597096257676
7.743926561,7.029215813,1.185045362,1.316650629,7.248984503,7.24898450367864
7.746432602,5.508875847,4.345366001,0.3209373355,7.023739713,7.023739712832796
7.748938644,3.940679789,7.531708241,-1.759621978,8.680544667,8.680544667959554
7.751444686,1.812264085,9.049654961,-5.839085579,10.92133126,10.921331257031744
7.753950727,-0.2033899277,10.87149048,-12.88026524,16.85621266,16.856212663945975
7.756456769,-1.489233017,17.27827263,-20.37608147,26.75707787,26.75707786974518
7.758962811,-1.718943954,30.80729294,-25.20270348,39.83993385,39.83993385171179
7.761468852,-1.699801445,51.86323547,-28.60230637,59.25180544,59.25180544128958
7.763974894,-3.251247883,70.74798584,-30.51506805,77.11690795,77.11690794702342
7.766480936,-8.630612373,76.51768494,-29.98834801,82.63621842,82.63621842073216
7.768986977,-16.49522209,77.96144867,-29.9620285,85.13402952,85.13402952027045
7.771493019,-25.98784828,74.02316284,-25.69592476,82.55348233,82.55348232711349
7.773999061,-39.47858429,51.64070129,12.10708427,66.12036099,66.1203609849986
7.776505102,-46.74468613,24.34547424,51.82494736,73.91612115,73.9161211524894
7.779011144,-35.94498062,4.079463482,59.371315,69.52436047,69.52436047100593
7.781517186,-21.89163589,-7.771289825,53.56064224,58.38132463,58.38132462222621
7.784023227,-9.918848038,-14.75474262,43.16801453,46.685795,46.68579499853968
7.786529269,0.1196411327,-19.50479507,30.06043243,35.83407517,35.83407516041018
7.789035311,7.08425045,-23.62254333,17.18973923,30.06157502,30.061575018808536
7.791541352,12.17647648,-27.60868645,5.180759907,30.61611373,30.61611373405164
7.794047394,16.50718689,-30.4959259,-4.96779871,35.03095402,35.030954019877285
7.796553436,20.60609055,-32.73680496,-14.87707615,41.44438154,41.44438154342249
7.799059477,24.07508659,-34.54458237,-24.76212502,48.84773076,48.847730765510725
7.801565519,26.68715096,-35.22444153,-33.64189148,55.54045525,55.540455253934624
7.804071561,28.18087006,-34.56611633,-38.07818222,58.64235497,58.6423549719588
7.806577602,28.8080883,-32.40180969,-36.9577446,56.97067762,56.97067762109209
7.809083644,29.09313393,-28.96870804,-32.48794937,52.35516537,52.35516537690776
7.811589686,29.24866676,-24.77408981,-27.13460922,46.9630392,46.96303919758158
7.814095727,29.59114075,-20.17747688,-22.80389977,42.45920429,42.45920428893423
7.816601769,30.5581398,-15.9445734,-20.54387856,40.1258056,40.12580560228491
7.819107811,32.25076294,-12.41575813,-19.8589325,39.85774655,39.85774655188493
7.821613852,34.53979492,-9.166903496,-19.68664932,40.79943277,40.799432768964955
7.824119894,37.0343132,-5.365306377,-19.28196335,42.09656729,42.09656728695957
7.826625936,39.56980896,-0.1244267747,-17.96770477,43.45829815,43.45829814724731
7.829131977,41.73381805,6.210271835,-15.68136311,45.01315579,45.01315579119919
7.831638019,43.47190475,12.90180016,-12.4301157,47.01883374,47.01883374007734
7.834144061,44.66921234,18.85364723,-8.01775074,49.14349267,49.14349267072972
7.836650102,45.28925323,23.84507561,-2.408375978,51.23967568,51.239675680365984
7.839156196,45.102314,27.79562569,3.428316593,53.0901958,53.09019580219142
7.841662238,43.32594299,30.00988388,8.386544228,53.36726141,53.36726141139354
7.844168279,39.56980896,29.89981461,11.72871971,50.96402222,50.96402222037629
7.846674321,34.54458237,27.36222649,12.57129192,45.82637876,45.82637875880692
7.849180363,28.8080883,22.79911232,10.57717323,38.23064305,38.23064304478805
7.851686404,22.87329102,17.59891129,5.827121258,29.44256209,29.442562096976847
7.854192446,17.48405647,13.13390446,-0.8739784956,21.88505233,21.885052328503306
7.856698488,12.90658665,9.990633011,-8.012965202,18.18241838,18.18241838268232
7.859204529,9.126225471,7.809575081,-14.01266861,18.45622756,18.45622756326397
7.861710571,6.069095612,6.622136593,-18.61885262,20.672404,20.672404008465683
7.864216613,3.478565931,6.253343105,-21.30030823,22.47015468,22.470154686120225
7.866722654,0.926620543,6.191129684,-21.46780586,22.36191854,22.36191854107035
7.869228696,-1.75722909,6.303592205,-19.38036728,20.45536029,20.45536029184951
7.871734738,-4.481756687,6.5790658,-16.39233017,18.22302769,18.223027690383702
7.874240779,-7.306783199,6.698707104,-12.87787247,16.25119555,16.25119555404933
7.876746821,-9.99302578,6.363412857,-9.361021042,15.09908283,15.099082832316151
7.879252863,-12.13340569,5.755336761,-6.744170666,15.02755046,15.027550460496789
7.881758904,-13.34237862,5.142475128,-5.1735816,15.20625083,15.206250828307097
7.884264946,-13.0956192,4.991727352,-5.152046204,14.93171672,14.931716722341887
7.886770988,-11.30967617,5.370092392,-6.243771553,13.99040209,13.990402087679044
7.889277029,-8.09671402,5.997310638,-8.71705246,13.32334479,13.323344790281627
7.891783071,-4.285545349,6.954739094,-11.65932751,14.23636937,14.236369368255035
7.894289113,-0.608076036,8.443971634,-13.69173145,16.09763721,16.097637203026824
7.896795154,2.664707184,10.13180923,-13.85234928,17.36783819,17.36783818512514
7.899301196,5.583053589,11.9656086,-12.58564854,18.24129451,18.24129451871341
7.901807238,8.195118904,13.61516094,-10.28016472,18.92655193,18.926551929581166
7.904313279,10.61785126,15.02782345,-7.589435101,19.90411435,19.904114352970954
7.906819321,12.882658,15.97807312,-4.924727917,21.10721779,21.107217789881965
7.909325363,14.97518158,16.56969833,-2.851347208,22.51535359,22.51535358376025
7.911831404,16.76351738,16.70608902,-1.776371717,23.73319241,23.733192405799183
7.914337446,18.15434456,16.62951851,-1.75722909,24.68215887,24.682158867335257
7.916843488,18.95893288,16.31815338,-2.260020971,25.11634847,25.116348470088365
7.919349529,19.04268074,15.73400497,-2.899203777,24.87142909,24.871429084435874
7.921855571,18.70020866,15.27667713,-3.799503326,24.44403596,24.44403595125177
7.924361613,18.13281059,15.33171177,-4.896014214,24.24522965,24.245229651930764
7.926867654,17.39312935,15.85603905,-5.815157413,24.24357603,24.24357602910357
7.929373696,16.41147232,16.44018745,-6.389733791,24.09242381,24.092423809594397
7.931879738,15.28864098,16.8664093,-6.727420807,23.73765987,23.737659876342452
7.934385779,14.08923912,17.01476288,-6.911668301,23.14692147,23.146921470169904
7.936891821,12.81805134,16.76590919,-6.818347931,22.17854864,22.178548636697897
7.939397863,11.55643559,16.36361694,-6.32752037,21.00849059,21.008490591606968
7.941903904,10.40489006,15.91346741,-5.463412285,19.78254422,19.782544223777382
7.944409998,9.313164711,15.53061581,-4.319045067,18.61690669,18.616906688889394
7.94691604,8.187939644,15.19532108,-3.138785124,17.54400497,17.544004970152137
7.949422082,7.134500027,15.00150204,-2.159522533,16.75140864,16.75140864709359
7.951928123,6.262914181,15.01107407,-1.659123421,16.3495911,16.34959110496981
7.954434165,5.542375565,15.05653763,-1.561017632,16.11998847,16.119988472530927
7.956940207,5.001298428,15.13071442,-1.651944876,16.02124922,16.021249224041608
7.959446248,4.627718925,15.34606934,-1.857727647,16.13594678,16.135946784968006
7.96195229,4.390829563,15.71247005,-2.126022816,16.45238805,16.452388043612828
7.964458332,4.132105827,15.96610928,-2.336591244,16.65684852,16.656848523894517
7.966964373,4.065106392,16.30379677,-2.609672308,17.00438969,17.004389687691933
7.969470415,4.060320854,16.55773354,-2.755634308,17.2695763,17.269576308019108
7.971976457,4.122534275,16.71326828,-2.714956284,17.42697946,17.426979459213094
7.974482498,4.129712582,16.76351738,-2.451446772,17.43787924,17.43787923560203
7.97698854,4.000500202,16.71087456,-2.121237278,17.31349121,17.313491213958958
7.979494582,3.871287823,16.63191223,-1.797907114,17.17090108,17.17090107785563
7.982000623,3.792324781,16.55025673,-1.297508121,17.0286891,17.028689098035642
7.984506665,3.732504129,16.31815338,-0.8330013752,16.76029857,16.760298568262215
7.987012707,3.69900465,16.09562111,-0.5219344497,16.52344001,16.523440013725438
7.989518748,3.69900465,15.92782402,-0.5147559643,16.35980401,16.359804006026263
7.99202479,3.684647799,15.83928967,-0.7540382147,16.2796898,16.279689809147847
7.994530832,3.622135162,15.72204113,-1.223330617,16.18020328,16.180203281284758
7.997036873,3.562314749,15.61915016,-1.987239242,16.14301886,16.143018859448677
7.999542915,3.483351469,15.60957813,-2.927917719,16.25931638,16.259316376231595
8.002048957,3.318246841,15.58086491,-3.974179268,16.41853264,16.418532647458996
8.004554998,2.982952595,15.63589954,-5.1735816,16.73754185,16.737541850010356
8.00706104,2.542673111,15.95175171,-6.286842346,17.33343462,17.33343462359232
8.009567082,1.927119493,16.49522209,-7.115357399,18.06749712,18.06749712202076
8.012073123,1.063011408,17.00040627,-7.634898663,18.66642665,18.66642665838517
8.014579165,0.002392822644,17.49841309,-7.599006653,19.07719498,19.07719498527553
8.017085207,-1.158724308,18.08256149,-6.866204739,19.37695641,19.376956406501183
8.019591248,-2.451446772,18.24317932,-6.291627884,19.45270584,19.452705837706773
8.02209729,-3.79471755,17.9581337,-6.097809315,19.34108905,19.34108905189815
8.024603332,-5.144867897,17.20888138,-5.990132332,18.93401567,18.93401566977707
8.027109373,-6.512066841,16.18894005,-6.035595894,18.46394357,18.46394357334899
8.029615415,-7.773682594,15.11396503,-6.224628925,18.09994711,18.099947106394207
8.032121457,-8.796015739,14.21127319,-6.298806667,17.86071511,17.860715102979277
8.034627498,-9.614660263,13.48594856,-6.337091446,17.73333665,17.733336644039767
8.03713354,-10.23709393,13.05494118,-6.5288167,17.82848924,17.828489247468543
8.039639582,-10.69920731,12.81565857,-6.7704916,18.01537394,18.01537393869032
8.042145623,-11.26421261,12.61914825,-6.576673031,18.14877452,18.148774516078042
8.044651665,-11.91057396,12.32483101,-5.61655283,18.03632161,18.036321608739094
8.047157707,-12.72951698,11.73589802,-3.694219112,17.7036482,17.703648203898943
8.049663748,-13.70608807,10.80927753,-1.247258782,17.5000853,17.50008529614743
8.05216979,-14.47956848,9.688838005,1.077368379,17.45543491,17.45543490945473
8.054675832,-14.65185165,8.671290398,2.784348249,17.25168482,17.251684819511514
8.057181873,-13.51944828,8.012965202,3.540779352,16.10963102,16.10963101823277
8.059687967,-11.44367409,7.804789066,3.564707518,14.30313073,14.303130731828476
8.062194009,-9.243474007,7.972286701,3.447459221,12.68401128,12.68401127567632
8.06470005,-7.187141895,8.343473434,3.461816072,11.54351455,11.543514546232679
8.067206092,-5.259723186,8.668897629,3.655933857,10.77869781,10.778697809206209
8.069712134,-3.473780155,8.90130043,4.031607151,10.37083189,10.370831891916112
8.072218175,-1.929512382,9.133403778,4.443471432,10.33859376,10.338593761787727
8.074724217,-0.6966105103,9.39452076,4.622933388,10.49351226,10.493512263442424
8.077230259,0.1459621787,9.655338287,4.567898273,10.68234792,10.68234791731178
8.0797363,0.5267201066,9.868598938,4.424329281,10.82780535,10.827805348107502
8.082242342,0.5267201066,9.985847473,4.345366001,10.90306331,10.903063308417682
8.084748384,0.2512463629,9.959526062,4.381258488,10.88350633,10.883506330829222
8.087254425,-0.2057827413,9.832706451,4.441078663,10.79109088,10.79109087993924
8.089760467,-0.8835497499,9.291629791,4.594219685,10.40297548,10.402975480485791
8.092266509,-1.829013824,7.785646915,4.817050934,9.336250273,9.336250272683483
8.09477255,-2.765205622,5.748157978,4.414757729,7.757433085,7.757433085612193
8.097278592,-3.153141975,4.476971149,2.762812853,6.133409317,6.133409316537359
8.099784634,-2.810669184,4.555934429,0.6487540603,5.392335451,5.392335450803345
8.102290675,-1.891227245,5.920740604,-0.8258228898,6.270079206,6.2700792050341905
8.104796717,-0.7923234105,8.065607071,-1.132403374,8.183161443,8.183161443601009
8.107302759,0.1603191197,10.36869907,-0.7277171612,10.39544107,10.395441062844098
8.1098088,0.8162516356,12.40857983,-0.332901448,12.43985303,12.439853033865916
8.112314842,1.070189953,14.01027584,-0.3448655605,14.05532169,14.055321693337682
8.114820884,0.8883354068,15.19771385,-0.9146564603,15.25110627,15.251106271409457
8.117326925,0.323330164,16.02862167,-1.83619225,16.13669288,16.136692877225677
8.119832967,-0.5362913609,16.57209206,-2.798705101,16.81530832,16.815308320433925
8.122339009,-1.541875124,16.86162376,-3.555136204,17.30117708,17.30117707414146
8.12484505,-2.54506588,16.96929932,-3.952643871,17.60846027,17.60846027670354
8.127351092,-3.418745279,16.92144394,-3.933501244,17.70580459,17.70580459436388
8.129857134,-4.136891365,16.70848274,-3.581457376,17.58164107,17.581641066032326
8.132363175,-4.723432064,16.31336784,-3.002095222,17.24672017,17.24672016553654
8.134869217,-5.278865814,15.72204113,-2.355733871,16.7510741,16.751074104265857
8.137375259,-5.841478348,15.02782345,-1.70937264,16.21358386,16.213583865293423
8.1398813,-6.420840263,14.27109337,-1.199402332,15.69489922,15.694899222748354
8.142387342,-6.997809887,13.53619766,-0.9816554785,15.26963123,15.269631226183998
8.144893384,-7.522137165,13.01187038,-1.199402332,15.0774628,15.077462792824349
8.147399425,-8.003393173,12.83958721,-1.915155411,15.25047941,15.250479410598905
8.149905467,-8.396115303,13.10997581,-3.0981071,15.87338923,15.873389226095552
8.152411509,-8.764909744,13.92413425,-4.697110653,17.11046481,17.110464807217113
8.15491755,-9.095118523,15.31496239,-6.495316982,18.95938809,18.95938808746711
8.157423644,-9.461520195,17.22084618,-8.238189697,21.30600096,21.306000963094185
8.159929686,-9.880562782,19.495224,-9.729516029,23.92389521,23.92389520662945
8.162435727,-10.277771,21.69063759,-11.10150051,26.44540885,26.445408852250562
8.164941769,-10.59631634,23.33540535,-12.32004547,28.43600857,28.436008566763146
8.167447811,-10.78056335,23.9626236,-13.29452229,29.44778767,29.44778767340506
8.169953852,-10.80927753,23.48136711,-13.91934872,29.35921237,29.359212367911343
8.172459894,-10.64417267,21.98495483,-14.04616833,28.17679001,28.176790013424352
8.174965936,-10.277771,19.73689842,-13.57926846,26.0686453,26.068645301944446
8.177471977,-9.480662346,17.15623856,-12.43968678,23.21562592,23.215625928046823
8.179978019,-7.991429329,14.69252968,-10.78534889,19.90118393,19.9011839295331
8.182484061,-6.128916264,12.81805134,-8.970691681,16.802957,16.802957000527083
8.184990102,-4.235296249,11.56122208,-7.129714012,14.22787448,14.227874479091462
8.187496144,-2.396411896,10.84038353,-5.504090309,12.39159857,12.39159857251732
8.190002186,-0.5697908998,10.45753193,-4.194318771,11.28170846,11.281708456134973
8.192508227,1.237687469,10.30648518,-3.253640652,10.87849642,10.8784964277618
8.195014269,2.966202736,10.33519936,-2.724527597,11.0922385,11.092238507569737
8.197520311,4.575077057,10.48146057,-2.446661234,11.69523394,11.69523394173502
8.200026352,6.083452702,10.76381397,-2.329412937,12.58150439,12.581504384981201
8.202532394,7.526922703,11.0943222,-2.367697954,13.61413031,13.614130308459863
8.205038436,8.822337151,11.3575325,-2.592922449,14.61336457,14.613364572233158
8.207544477,9.978668213,11.51815128,-2.992523909,15.53051279,15.530512791277657
8.210050519,11.00100231,11.55643559,-3.579064369,16.35184873,16.351848737310696
8.212556561,11.88185978,11.46281719,-4.302295208,17.06119907,17.06119907332779
8.215062602,12.63619709,11.29771233,-5.089832783,17.69797103,17.69797102912252
8.217568644,13.2275238,11.06321526,-5.83669281,18.20519433,18.205194333677657
8.220074686,13.6534462,10.79491997,-6.567101955,18.60305669,18.603056694596297
8.222580727,13.90499115,10.4599247,-7.349853992,18.88859861,18.88859860643364
8.225086769,13.93849087,10.10309505,-8.159226418,19.0506439,19.050643901521987
8.227592811,13.69412422,9.676874161,-8.968298912,19.01581755,19.01581754896698
8.230098852,13.24427319,9.219545364,-9.662516594,18.80890789,18.80890788907033
8.232604894,12.69123173,8.649754524,-10.25623608,18.46824287,18.468242869279987
8.235110936,12.10469151,8.012965202,-10.63699436,17.99657792,17.99657792179949
8.237616977,11.5899353,7.493422985,-10.54128075,17.36653645,17.36653644629904
8.240123019,11.17567825,7.029215813,-10.14616585,16.65083604,16.65083603753753
8.242629061,10.84995556,6.451947212,-9.856635094,16.01569274,16.01569273733365
8.245135102,10.51735306,5.812764645,-9.693623543,15.43921259,15.439212596510782
8.247641144,10.21316528,5.164010525,-9.533304214,14.89495348,14.894953473427783
8.250147186,10.04088211,4.565505505,-9.339486122,14.45299814,14.45299813485541
8.252653227,10.00020409,4.03399992,-9.056833267,14.08202634,14.082026346462026
8.255159269,10.04566765,3.602992773,-8.644968987,13.73435416,13.73435416183588
8.257665363,10.25623608,3.284747362,-8.123034477,13.48938964,13.489389640580125
8.260171404,10.5915308,3.081058264,-7.546065331,13.36475015,13.364750154538298
8.262677446,11.10867882,3.011666298,-7.038786888,13.49138243,13.49138242994788
8.265183488,11.67846966,3.009273529,-6.634100914,13.76421722,13.764217221077857
8.267689529,12.20758247,3.028416157,-6.227021694,14.03467753,14.034677529582808
8.270195571,12.65534019,3.085843801,-5.937490463,14.31551118,14.315511177985064
8.272701613,13.00947762,3.169891834,-5.800800323,14.59260109,14.592601089999606
8.275207654,13.25384426,3.303889751,-5.781657696,14.83265455,14.83265454559007
8.277713696,13.3208437,3.4809587,-5.697908878,14.9006079,14.900607904811354
8.280219738,13.21316624,3.701397419,-5.463412285,14.76946101,14.769461017083342
8.282725779,12.93769264,3.907180309,-5.245366573,14.49702795,14.497027947110169
8.285231821,12.45404339,4.007678986,-4.934299469,13.98256052,13.982560526048239
8.287737863,11.80528927,3.990929127,-4.292723656,13.18028249,13.18028248680187
8.290243904,11.11585712,3.983750582,-3.490530014,12.31325904,12.313259032054628
8.292749946,10.44796085,3.995714664,-2.753241539,11.51980732,11.519807314851773
8.295255988,9.839884758,4.01964283,-2.082952023,10.83141494,10.831414942730747
8.297762029,9.31555748,3.988536358,-1.75722909,10.28474052,10.28474051772888
8.300268071,8.769695282,3.844966888,-1.563410521,9.702349106,9.702349105558044
8.302774113,8.472685814,3.780360699,-1.690230131,9.430504218,9.430504218388373
8.305280154,8.477471352,3.68225503,-2.257628202,9.514378998,9.514378998568786
8.307786196,8.731410027,3.54556489,-3.131606579,9.930534286,9.930534286453723
8.310292238,9.164510727,3.397209883,-4.079463482,10.59109598,10.591095984619463
8.312798279,9.674481392,3.41635251,-4.864907742,11.35492765,11.354927653442319
8.315304321,10.31127071,3.600599766,-5.513661385,12.23466731,12.234667310485532
8.317810363,10.96032429,3.782753468,-5.951847076,13.03312763,13.033127635288462
8.320316404,11.61864948,4.017250061,-6.167201042,13.75375158,13.75375157853866
8.322822446,12.27697468,4.247260094,-6.207879066,14.3979543,14.39795430252253
8.325328488,12.97837067,4.476971149,-6.126523495,15.03381741,15.033817414472002
8.327834529,13.60798264,4.644468784,-5.848656654,15.52272741,15.522727417321683
8.330340571,14.13230991,4.831408024,-5.506483078,15.91810425,15.91810424563667
8.332846613,14.45563984,4.939085007,-5.144867897,16.11923539,16.119235390295305
8.335352654,14.57049561,5.04676199,-4.680361271,16.11443236,16.11443236765772
8.337858696,14.48196125,5.097011566,-4.100998878,15.8910327,15.891032702370119
8.34036479,14.29262829,5.152046204,-3.476173162,15.58546064,15.585460640496583
8.342870832,13.95045471,5.15922451,-2.860918522,15.14653885,15.146538843903205
8.345376873,13.50030518,5.106582642,-2.226521492,14.60454806,14.604548065142188
8.347882915,13.03340626,5.018048286,-1.64476645,14.06256534,14.062565342563934
8.350388957,12.5928278,4.965405941,-1.192223907,13.58881768,13.588817682336948
8.352894998,12.19083309,4.898406982,-0.8883354068,13.16814118,13.168141181826682
8.35540104,11.81246853,4.824229717,-0.7612167001,12.78229463,12.782294629648362
8.357907082,11.44128132,4.80508709,-0.794716239,12.43476393,12.434763933681891
8.360413123,11.08235836,4.898406982,-0.9242277741,12.15184162,12.151841620066733
8.362919165,10.74706364,5.034798145,-1.072582722,11.91633345,11.916333451974161
8.365425207,10.53170967,5.228616714,-1.264008522,11.82594854,11.825948539494846
8.367931248,10.45513916,5.532804012,-1.458126307,11.91838863,11.918388625033765
8.37043729,10.55803108,5.877370834,-1.654337764,12.19640692,12.196406915317164
8.372943332,10.72552872,6.248557091,-1.876870275,12.55404612,12.554046123549561
8.375449373,10.94836044,6.605386734,-2.169093609,12.96929826,12.969298258366365
8.377955415,11.19960594,7.002595425,-2.537887573,13.45021893,13.450218928727592
8.380461457,11.44606686,7.378567696,-2.980559587,13.94056825,13.940568254547683
8.382967498,11.7023983,7.742575645,-3.387638569,14.43501641,14.43501640679935
8.38547354,11.9656086,8.046463966,-3.746861219,14.89833348,14.898333481264828
8.387979582,12.20758247,8.288438797,-4.100998878,15.31474712,15.314747116776802
8.390485623,12.43729401,8.53729248,-4.419543266,15.71954223,15.719542228076884
8.392991665,12.67926788,8.855836868,-4.670789719,16.15567879,16.15567879120354
8.395497707,12.90897942,9.248259544,-4.766502857,16.57985536,16.57985535959104
8.398003748,13.12911892,9.734301567,-4.749752998,17.020298,17.02029800428919
8.40050979,13.28495121,10.134202,-4.670789719,17.34958949,17.349589488745853
8.403015832,13.33998585,10.47667503,-4.584648132,17.57085486,17.570854864140127
8.405521873,13.33280754,10.76381397,-4.534399033,17.72524253,17.725242527816633
8.408027915,13.15783215,10.99382401,-4.508078098,17.72894473,17.72894473419367
8.410533957,12.79173088,11.14217854,-4.55354166,17.56448869,17.564488696598534
8.413039998,12.2051897,11.17089272,-4.61814785,17.17797396,17.177973959090597
8.41554604,11.44606686,11.08953667,-4.716253281,16.6202682,16.620268202691804
8.418052082,10.72552872,11.04646587,-4.773980141,16.11993365,16.11993365145409
8.420558123,10.13180923,11.07518005,-4.771587372,15.7505942,15.75059419392364
8.423064217,9.765408516,11.24267673,-4.670789719,15.60696192,15.606961912517276
8.425570259,9.717552185,11.44128132,-4.613361835,15.70403917,15.704039166157662
8.4280763,9.930811882,11.59472084,-4.670789719,15.96480042,15.964800424443732
8.430582342,10.32802105,11.55643559,-4.802694321,16.22606221,16.22606221780341
8.433088384,10.73270702,11.249856,-5.003691196,16.33362132,16.33362132482632
8.435594425,11.05603695,10.52692413,-5.199902534,16.12733924,16.127339242467777
8.438100467,11.27139091,9.49980545,-5.432305813,15.70988552,15.709885520901606
8.440606509,11.34796143,8.211868286,-5.544768333,15.06504116,15.065041162573033
8.44311255,11.30249786,6.70588541,-5.329114914,14.18149579,14.18149578760903
8.445618592,11.10628605,5.04676199,-4.704289436,13.07477478,13.07477477839655
8.448124634,10.7925272,3.327818155,-3.691826344,11.88202839,11.882028395427266
8.450630675,10.32562828,1.632802367,-2.32701993,10.70979294,10.709792934554512
8.453136717,9.789336205,0.04067798331,-0.8282157183,9.824393075,9.824393075854058
8.455642759,9.226723671,-1.386042476,0.5578267574,9.346909336,9.346909336114228
8.4581488,8.580363274,-2.650350094,1.685444474,9.13716108,9.1371610804183
8.460654842,7.926823139,-3.71336174,2.561815739,9.120662277,9.120662276922095
8.463160884,7.266105175,-4.491328239,3.174677372,9.113006649,9.113006648789929
8.465666925,6.75613451,-4.948656559,3.519243956,9.084031774,9.084031774382407
8.468172967,6.772884369,-5.068297386,2.834597588,8.92157747,8.92157747008198
8.470679009,7.234998226,-4.922335148,1.28315115,8.844267042,8.8442670421695
8.47318505,7.965108395,-4.577469826,-0.5099703074,9.200883189,9.200883189480757
8.475691092,8.829515457,-4.053142548,-2.324627161,9.989604555,9.989604554609194
8.478197134,9.724730492,-3.397209883,-4.041178226,11.06537571,11.065375709187824
8.480703175,10.71117115,-2.650350094,-5.513661385,12.33507215,12.335072147895945
8.483209217,11.73829079,-1.867298961,-6.600601196,13.59566887,13.595668877586977
8.485715259,12.73669624,-1.141974568,-7.194320202,14.67262009,14.672620086163693
8.4882213,13.69173145,-0.5219344497,-7.261319637,15.50685941,15.506859402837978
8.490727342,14.53460312,-0.06699903309,-6.887740135,16.08415807,16.084158072265968
8.493233384,15.18814278,0.2440679073,-6.152844429,16.3889214,16.388921404916076
8.495739425,15.5114727,0.375972271,-5.216652393,16.36950221,16.36950221175949
8.498245467,15.39392567,0.3687937856,-4.158426762,15.94996769,15.949967696666345
8.500751509,14.84327698,0.2273181528,-3.033201694,15.15172787,15.151727873878768
8.503257602,13.94566917,0.0,-1.879263043,14.07172052,14.071720512569673
8.505763644,12.86830139,-0.3113660514,-0.7157530785,12.89195222,12.89195221644971
8.508269634,11.75982571,-0.6200401783,0.3352942765,11.78093259,11.780932594838873
8.510775675,10.5221386,-0.4429712892,1.491625786,10.63656766,10.636567668478662
8.513281717,9.298808098,0.4453641176,2.726920605,9.700632826,9.70063282609179
8.515787811,8.164011955,2.221735716,2.195414782,8.74111245,8.741112449691805
8.518293852,7.182356358,4.331008911,0.6702894568,8.413867659,8.413867659784152
8.520799894,5.95902586,5.635695457,-1.848156333,8.407540325,8.407540324934944
8.523305936,4.304687977,6.210271835,-6.806384087,10.16979248,10.169792484789916
8.525811977,2.65513587,7.325925827,-12.84915829,15.02730197,15.027301969160732
8.528318019,1.572981834,10.85952663,-17.33330727,20.51455901,20.514559010468833
8.530824061,1.381256819,18.42742538,-19.26042747,26.6916081,26.69160809810141
8.533330102,1.817049742,29.69642448,-20.73769569,36.26611807,36.266118060695305
8.535836144,2.463410854,44.43202591,-24.18515587,50.64775497,50.647754974517
8.538342186,2.161915302,61.18597031,-27.18485832,66.98815837,66.98815837465378
8.540848227,-1.141974568,73.46055603,-27.67568588,78.50924141,78.50924141194564
8.543354269,-8.506185532,75.02635956,-27.68765068,80.4233537,80.42335370592869
8.545860311,-16.5649128,62.09344864,-26.06681252,69.35035266,69.35035266696738
8.548366352,-23.39522552,41.35335922,-7.673183918,48.12810663,48.12810662543741
8.550872394,-27.52015305,19.78714752,23.45743942,41.22064404,41.220644039323744
8.553378436,-19.89961052,3.150749207,35.98805237,41.24392843,41.24392843557665
8.555884477,-9.296415329,-6.160022736,37.91786575,39.52383789,39.52383788439991
8.558390519,-1.103689432,-11.01775169,33.72563934,35.49686932,35.4968693204987
8.560896561,5.685945034,-12.41336536,26.88814735,30.15616154,30.156161533023884
8.563402602,11.38146114,-13.18415356,18.80339813,25.63059391,25.63059390670217
8.565908644,15.71007729,-14.62792301,9.667302132,23.54228941,23.542289407694252
8.568414686,18.43939018,-17.20648766,-0.5410770178,25.22631745,25.226317451090715
8.570920727,20.14397812,-19.94537354,-11.27139091,30.50642609,30.506426096729218
8.573426769,21.09452629,-22.08784676,-20.23011971,36.63481619,36.63481619134555
8.575932811,20.84537315,-24.15644264,-24.82912445,40.42955261,40.429552603707336
8.578438852,20.08654976,-25.66481781,-24.98735046,41.06726236,41.06726235692259
8.580944894,19.30349922,-26.04766846,-22.33221436,39.36793,39.36793000094886
8.583450988,18.93978882,-25.2433815,-18.95653915,36.81432176,36.814321759964855
8.585957029,19.32264137,-23.67757797,-16.66301918,34.80873994,34.808739940309714
8.588463019,20.38325882,-21.54198456,-16.69412613,34.03275167,34.03275166880773
8.590969061,22.34657097,-18.51835442,-18.61645889,34.48001198,34.48001198005941
8.593475154,25.10938263,-14.34796238,-20.97458649,35.72503882,35.725038823549674
8.595981196,28.37498856,-9.090332985,-22.94986153,37.60944394,37.609443944367
8.598487238,31.81048393,-2.920739174,-23.64886475,39.74552062,39.745520617386795
8.600993279,35.33211899,3.758825302,-22.56192398,42.08952142,42.08952142343475
8.603499321,38.68626022,10.33041382,-19.44736671,44.51453978,44.51453977584423
8.606005363,41.7649231,16.57209206,-13.79970741,47.00398878,47.00398878175805
8.608511404,44.31238174,21.92513466,-5.942276001,49.79567601,49.79567601110241
8.611017446,45.9691124,25.77967262,3.114856958,52.79633651,52.796336512176794
8.613523488,46.02414703,28.10429955,11.80768204,55.20412229,55.204122293474846
8.616029529,44.06831741,28.72673225,17.79063606,55.53150887,55.531508862366344
8.618535571,39.99573135,26.63421059,19.93819427,52.02471808,52.02471807441249
8.621041613,34.66901016,22.42074776,17.33809471,44.77990312,44.77990312366317
8.623547654,28.44677353,16.65583992,12.023036,35.08830749,35.08830748789503
8.626053696,22.49971199,10.92891788,4.891228676,25.48729887,25.487298868684736
8.628559738,17.77149391,6.507281303,-3.102892876,19.17807733,19.178077326715314
8.631065779,14.40778351,3.780360699,-10.67049313,18.32306678,18.32306678269085
8.633571821,12.05175018,2.889632463,-17.17777443,21.18184583,21.18184582467532
8.636077863,10.14616585,3.002095222,-21.28834534,23.77290273,23.77290273594626
8.638583904,8.601898193,3.68225503,-23.55315208,25.3436901,25.343690093044962
8.641089946,7.156035423,4.857728958,-24.06072807,25.56804664,25.56804663761212
8.643595988,5.726622581,6.351448536,-22.65045929,24.21112163,24.211121633221023
8.646102029,4.33340168,8.171190262,-19.31067657,21.41142102,21.41142101797957
8.648608071,2.805883646,10.09113121,-14.3886404,17.79710327,17.797103266903815
8.651114113,1.063011408,11.64497089,-8.398508072,14.39688432,14.396884319808043
8.653620154,-0.8668000102,12.70798206,-2.410768747,12.96363978,12.963639776176926
8.656126196,-2.935096025,13.440485,2.394019127,13.96398057,13.963980567575911
8.658632238,-5.171188831,13.50987625,5.1233325,15.34622058,15.34622058103328
8.661138279,-6.995417118,12.78694534,4.829015255,15.35451791,15.354517905684238
8.663644321,-7.998608112,11.11585712,1.666301847,13.79552729,13.795527285570584
8.666150363,-7.876574039,9.346664429,-3.844966888,12.81344313,12.813443132507324
8.668656404,-6.993024349,7.347461224,-9.722337723,14.05031768,14.05031767555308
8.671162498,-5.408377171,5.575874805,-14.97039604,16.86575469,16.86575468395279
8.67366854,-2.834597588,4.970191956,-19.76321983,20.57480522,20.574805214492013
8.676174582,0.5291129351,6.188736439,-24.09901428,24.88660098,24.886600982800775
8.678680623,3.835395575,8.029714584,-26.73500824,28.17706942,28.177069420188108
8.681186665,6.751348972,9.978668213,-26.94079018,29.51204343,29.51204343602195
8.683692707,9.308379173,11.97996521,-24.62812614,28.92594141,28.925941409553154
8.686198748,11.49153042,13.77577877,-19.75364876,26.68396506,26.683965062321935
8.68870479,13.44287777,15.02782345,-12.1669054,23.54952287,23.549522869817963
8.691210832,15.22642803,15.76271915,-2.856132984,22.10124253,22.101242525632788
8.693716873,16.61994743,15.8440752,4.196712017,23.34244553,23.34244552896827
8.696222915,17.22323799,15.28624821,6.768098831,24.0024264,24.002426397847593
8.698728957,17.05065536,14.29262829,4.493721008,22.69796467,22.6979646695325
8.701234998,16.5215435,13.4213419,-0.7325028181,21.29860039,21.298600385884804
8.70374104,16.02144241,13.15783215,-6.538387775,21.73857582,21.738575815374606
8.706247082,15.73161221,13.63430309,-11.249856,23.66299016,23.662990163893927
8.708753123,15.66700649,14.83609867,-14.0054903,25.72389307,25.72389306942229
8.711259165,15.68136311,16.57926941,-14.72363567,27.1581069,27.158106901990184
8.713765207,15.49472332,18.56620979,-13.74437332,27.81543447,27.81543446881913
8.716271248,14.91057491,20.41915131,-11.57797146,27.80856716,27.80856716006725
8.71877729,13.86431313,21.71217346,-8.803194046,27.22377417,27.223774175072577
8.721283332,12.44925785,22.22932243,-6.207879066,26.22335904,26.223359037521657
8.723789373,10.74945641,21.85095787,-4.232903481,24.7170517,24.717051701739567
8.726295415,8.855836868,20.78555298,-3.081058264,22.80258712,22.80258711951733
8.728801457,7.144071102,19.68664932,-2.920739174,21.14551089,21.14551088722205
8.731307498,5.592624664,18.80579185,-3.442673683,19.91951957,19.919519568140398
8.73381354,4.153641224,18.36521339,-3.835395575,19.21572423,19.21572422508913
8.736319582,2.848954439,18.54945946,-3.648755312,19.11837867,19.118378670288166
8.738825623,1.704586983,19.25803566,-2.698206663,19.52070371,19.52070371325538
8.741331665,0.6918248534,20.1918335,-1.18743825,20.23854667,20.238546670081508
8.743837707,-0.05503492057,21.1710968,0.385543555,21.17467857,21.17467856639752
8.746343748,-0.5243272781,21.93949127,1.46769762,21.99477967,21.994779666655443
8.74884979,-0.6750751138,22.47578239,1.996810555,22.57440526,22.57440526003876
8.751355884,-0.7444669604,22.715065,2.035095692,22.81819501,22.818195009354906
8.753861925,-0.7707880139,22.66003036,1.735693693,22.73947499,22.739474986780447
8.756367967,-0.8210372925,22.31785774,1.199402332,22.365139,22.365138995601182
8.758874009,-0.8859425783,21.83181381,0.5195416212,21.85595827,21.855958271892604
8.76138005,-0.9337990284,21.41995049,-0.04546362907,21.44034343,21.440343433841264
8.763886092,-1.007976532,21.11845398,-0.3448655605,21.14530793,21.145307929875592
8.766392134,-1.237687469,20.76880264,-0.1794617027,20.80642305,20.806423043688373
8.768898175,-1.635195136,20.37368774,0.3831507266,20.44279384,20.442793833992422
8.771404217,-2.200200319,19.85653877,0.9984052777,20.00299544,20.002995437353377
8.773910259,-2.91116786,19.2388916,1.477268934,19.51389689,19.51389688937115
8.7764163,-3.66789794,18.44417572,1.568196177,18.87062088,18.870620883745485
8.778922342,-4.350151539,17.65633965,1.084546804,18.21665144,18.216651449113602
8.781428384,-4.821836948,17.12991905,0.2703889608,17.79767818,17.797678174491566
8.783934425,-5.197509766,16.78744507,-0.5626124144,17.58263212,17.582632125901107
8.786440467,-5.621338367,16.73241043,-1.307079315,17.69975876,17.69975876021987
8.788946509,-6.152844429,16.98365784,-1.520339727,18.12770148,18.127701483617944
8.79145255,-6.813562393,17.2615242,-1.10608232,18.59054244,18.590542442035037
8.793958592,-7.594220638,17.23998833,-0.2775674164,18.84055276,18.840552762268103
8.796464634,-8.506185532,16.72762489,0.7468597889,18.78101239,18.78101238777158
8.798970675,-9.511769295,15.73639774,1.632802367,18.46006535,18.460065344479762
8.801476717,-10.43360424,14.35753441,1.93190515,17.85304314,17.853043137792408
8.803982759,-11.22114182,12.99272823,1.72372961,17.2538765,17.2538765027336
8.8064888,-11.80528927,11.9225378,1.185045362,16.82010984,16.820109834683116
8.808994842,-12.24108219,11.20917797,0.347258389,16.60151657,16.601516567295874
8.811500884,-12.6433754,10.71595669,-0.6008976102,16.58456352,16.58456352230064
8.814006925,-13.07886982,10.28973579,-1.357328653,16.69664156,16.696641562564867
8.816512967,-13.66541004,9.72712326,-1.817049742,16.87193019,16.871930187191627
8.819019009,-14.30967808,8.910871506,-1.910369754,16.96525951,16.965259513095376
8.82152505,-14.80259895,7.929215908,-1.726122379,16.88102186,16.881021860583736
8.824031144,-15.22403526,6.758527756,-1.082154036,16.69191434,16.6919143415001
8.826537186,-15.35803318,5.752943993,-0.1507478207,16.40086195,16.400861948386172
8.829043227,-14.78106403,5.231009483,0.8018946648,15.69988373,15.69988372962139
8.831549269,-13.2083807,5.235795021,1.678265929,14.30704186,14.307041858696824
8.834055311,-11.06800079,5.537590027,2.554637194,12.63691877,12.636918769523632
8.836561352,-8.95154953,5.841478348,3.157927752,11.14565458,11.145654577683977
8.839067394,-7.079464912,6.059524059,3.167499065,9.842240883,9.842240882472593
8.841573436,-5.482554913,6.107380867,2.769991398,8.662064521,8.66206452144361
8.844079477,-4.089034557,6.157629967,2.240878344,7.723868601,7.723868601383946
8.846585519,-2.915953398,6.32752037,1.850549221,7.208663585,7.208663584286368
8.849091561,-2.027917147,6.653243542,1.793121457,7.182853342,7.182853342775079
8.851597602,-1.54905355,7.103393078,1.994417667,7.538929762,7.538929761696128
8.854103644,-1.606481314,7.239784241,2.523231506,7.833387217,7.833387217630323
8.856609686,-2.214557409,6.418447495,3.246462107,7.52597163,7.525971630029936
8.859115727,-3.081058264,4.79073,3.370888948,6.618678588,6.618678588571229
8.861621769,-3.660719633,3.466601849,2.118844509,5.468793163,5.468793163417439
8.864127811,-3.617349625,3.076272726,0.05503492057,4.748863131,4.7488631309715865
8.866633852,-2.884846687,3.742075443,-1.491625786,4.954837688,4.954837687963011
8.869139894,-1.747657895,5.142475128,-1.984846354,5.782644171,5.7826441710554475
8.871645936,-0.4453641176,6.9619174,-1.773978829,7.198169488,7.198169487266092
8.874151977,0.7683951855,8.889336586,-1.359721422,9.025496022,9.025496022144345
8.876658019,1.647159338,10.7614212,-1.01036942,10.93353404,10.933534034951423
8.879164061,2.059023857,12.44925785,-0.8162516356,12.6447565,12.644756501890475
8.881670102,1.929512382,13.90738392,-0.8114659786,14.06402583,14.064025830642914
8.884176144,1.36211431,15.03978729,-1.005583763,15.13478629,15.13478628281092
8.886682186,0.5410770178,15.93978786,-1.376471281,16.00825645,16.008256449358015
8.889188227,-0.3807578981,16.62951851,-1.809871197,16.73204997,16.732049970076243
8.891694269,-1.28315115,17.14666748,-2.068595171,17.31859603,17.318596032153426
8.894200311,-2.114058733,17.45773506,-2.035095692,17.70263744,17.70263743704095
8.896706352,-2.887239695,17.5247345,-1.74047935,17.84605672,17.84605672745804
8.899212446,-3.619742393,17.27348709,-1.302293777,17.69666241,17.69666240627568
8.901718488,-4.259224415,16.67737579,-0.8883354068,17.23557355,17.23557355161657
8.904224529,-4.831408024,15.84168243,-0.6032904387,16.57303126,16.57303125746069
8.906730571,-5.30279398,14.89382553,-0.5745765567,15.8201075,15.82010749432232
8.909236613,-5.650052547,14.00070477,-0.9122636318,15.12531165,15.1253116587549
8.911742654,-5.870192051,13.29930782,-1.623231053,14.62756379,14.62756378410842
8.914248696,-5.982954025,12.88744354,-2.65513587,14.45446943,14.454469424718157
8.916754738,-6.069095612,12.88983631,-3.909573078,14.77384728,14.773847274776278
8.919260779,-6.143272877,13.34716511,-5.271687508,15.61016679,15.610166792731219
8.921766821,-6.301199436,14.27827168,-6.693921566,16.98183566,16.981835661432385
8.924272863,-6.50010252,15.7938261,-8.065607071,18.88783453,18.887834525728906
8.926778904,-6.792026997,17.9078846,-9.308379173,21.29483234,21.294832340341028
8.929284946,-7.184749126,20.49841499,-10.4288187,24.09493509,24.094935081532885
8.931790988,-7.579864025,23.13410759,-11.42931747,26.89369016,26.89369016057915
8.934297029,-7.855038643,25.1548481,-12.46840096,29.15354245,29.153542452272
8.936803071,-7.98903656,25.91845703,-13.6031971,30.34201858,30.342018576792505
8.939309113,-7.905287743,25.11656189,-14.69252968,30.15303772,30.1530377221186
8.941815154,-7.618149281,22.88286209,-15.53540134,28.68815558,28.68815558191976
8.944321196,-7.124928474,19.76082611,-15.85364628,26.31716084,26.317160840041836
8.946827238,-6.437590122,16.56730652,-15.42263889,23.53244574,23.53244573430154
8.949333279,-5.55194664,13.96720505,-14.2495575,20.71127271,20.71127271193055
8.951839321,-4.457828522,12.22911835,-12.49232864,18.04111542,18.04111542005171
8.954345363,-3.301496983,11.35992527,-10.38066292,15.73867679,15.738676790867954
8.956851404,-2.123630047,11.16371441,-8.185546875,14.00505272,14.005052718479325
8.959357446,-0.950548768,11.38146114,-6.193522453,12.99234086,12.99234085981012
8.961863488,0.2368894368,11.83878899,-4.687539577,12.73522943,12.73522943024404
8.964369529,1.398006678,12.42772293,-3.684647799,13.03761287,13.037612868131033
8.966875571,2.506481647,13.05254841,-3.102892876,13.64842168,13.648421683186408
8.969381665,3.528815269,13.63191032,-2.865704298,14.36989135,14.369891346103689
8.971887707,4.417150497,14.04138279,-2.844168901,14.99202941,14.99202941252021
8.974393748,5.175974369,14.24477196,-2.959024191,15.44215215,15.44215215000391
8.97689979,5.819942951,14.1490593,-3.232105255,15.63694725,15.636947253451028
8.979405832,6.308377743,13.75185108,-3.694219112,15.57421885,15.574218847901841
8.981911873,6.684350014,13.17697525,-4.36211586,15.40588416,15.405884155894393
8.984417915,6.971488953,12.48275757,-4.946263313,15.12899255,15.128992548571206
8.986923957,7.151249409,11.72871971,-5.25254488,14.70688485,14.706884845604781
8.989429998,7.299604416,10.96989536,-5.50169754,14.27905826,14.279058255398999
8.99193604,7.536494255,10.28973579,-5.968596935,14.08195859,14.081958587360862
8.994442082,7.804789066,9.655338287,-6.669992924,14.09358348,14.093583483535026
8.996948123,8.082356453,9.097511292,-7.428816795,14.25750737,14.257507373839662
8.999454165,8.443971634,8.719446182,-8.173583031,14.63341581,14.633415809073497
9.001960207,8.915657043,8.429615021,-8.858229637,15.13326079,15.133260792456117
9.004466248,9.557232857,8.276473999,-9.466305733,15.79403894,15.794038937829427
9.00697229,10.26580715,8.056035995,-10.06720352,16.48135611,16.48135610642605
9.009478332,10.94836044,7.685148239,-10.62024403,17.07974482,17.079744817657918
9.011984373,11.57318592,7.323532581,-10.97707367,17.55189187,17.55189186841299
9.014490415,12.13579845,6.940382004,-11.02971554,17.80733364,17.807333637403072
9.016996457,12.74387455,6.524031162,-10.86431217,17.97227309,17.972273091517803
9.019502498,13.4285202,6.131309032,-10.56281662,18.15189247,18.15189246760351
9.02200854,14.14666653,5.774479389,-10.22273636,18.38415417,18.384154177200376
9.024514582,14.86959839,5.508875847,-9.878170013,18.68236902,18.682369019567165
9.027020623,15.53300858,5.264508724,-9.463912964,18.93555006,18.935550064405128
9.029526665,16.14347649,5.10897541,-8.934800148,19.1453419,19.145341903655527
9.032032707,16.61277008,4.9319067,-8.300402641,19.21469535,19.214695350985085
9.034538748,16.97647858,4.797908306,-7.627720356,19.21985606,19.21985605875651
9.03704479,17.22084618,4.728217602,-6.997809887,19.18027445,19.180274452199015
9.039550832,17.21845245,4.68275404,-6.317949295,18.92933632,18.929336318694283
9.042056925,16.89751625,4.522434711,-5.652445316,18.38283463,18.382834634099336
9.044562967,16.32533073,4.299902439,-5.037190914,17.61757296,17.617572952392866
9.047069009,15.56650734,4.029214382,-4.462614059,16.68728988,16.687289880084602
9.04957505,14.69252968,3.701397419,-3.799503326,15.62072331,15.620723311529009
9.052081092,13.90020561,3.442673683,-3.315854073,14.69906821,14.699068212690454
9.054587134,13.16261864,3.179463148,-3.066701412,13.88409784,13.884097843285616
9.057093175,12.48993587,2.894418001,-2.961417198,13.15850089,13.158500880489223
9.059599217,11.84596729,2.578565598,-2.968595505,12.48152639,12.48152638306891
9.062105259,11.23549843,2.329412937,-2.954238653,11.84863349,11.848633491693237
9.0646113,10.73031425,2.216950178,-3.100499868,11.38716872,11.38716871864799
9.067117342,10.38574791,2.233700037,-3.430709362,11.16346462,11.16346461596388
9.069623384,10.17248726,2.286342144,-3.754039526,11.08150126,11.081501261880682
9.072129425,10.06720352,2.362912416,-3.978965044,11.07989642,11.079896417393137
9.074635467,10.05523872,2.434697151,-4.287938118,11.19919592,11.199195919219921
9.077141509,10.10070229,2.46819663,-4.374079704,11.28045897,11.280458971712955
9.07964755,10.21077251,2.410768747,-4.33340168,11.35121365,11.35121364976937
9.082153592,10.37827015,2.293520451,-4.311866283,11.47000079,11.470000793723099
9.084659634,10.59631634,2.178664923,-4.280759811,11.63414824,11.634148244866674
9.087165675,10.83559799,2.109273195,-4.232903481,11.82271919,11.822719191941397
9.089671717,11.07278633,2.07098794,-4.045963764,11.96935299,11.969352987403344
9.092177759,11.28814125,2.039881229,-3.830610037,12.09366866,12.093668656116856
9.0946838,11.38146114,1.987239242,-3.602992773,12.10241028,12.102410272692174
9.097189842,11.27617645,1.848156333,-3.308675528,11.89601492,11.896014917287582
9.099695884,11.04885864,1.66151619,-2.944667339,11.55460857,11.554608562548024
9.102201925,10.74706364,1.546660781,-2.528316259,11.1482698,11.148269801149295
9.104707967,10.40010452,1.510768414,-2.16670084,10.730293,10.730292994961564
9.107214061,10.04566765,1.482054472,-1.929512382,10.33609897,10.336098975170614
9.109720102,9.681659698,1.386042476,-1.848156333,9.953458198,9.953458197247913
9.112226144,9.341878891,1.211366415,-1.888834357,9.607591011,9.607591010949882
9.114732186,8.97308445,1.000798106,-1.963011861,9.239656755,9.239656755650163
9.117238227,8.606683731,0.7516453862,-2.047059774,8.878650199,8.87865019867236
9.119744269,8.336295128,0.6200401783,-2.111665964,8.621913907,8.621913907441833
9.122250311,8.091927528,0.5961119533,-2.104487419,8.382333081,8.382333080712112
9.124756352,7.823931694,0.6343970895,-2.032702923,8.108529336,8.108529335996542
9.127262394,7.546065331,0.7037889361,-1.857727647,7.8031771,7.803177100176893
9.129768436,7.273283482,0.7971090674,-1.553839207,7.480003459,7.48000345962993
9.132274477,7.11296463,0.8955138922,-1.175474167,7.264843459,7.264843458467538
9.134780519,7.179963589,1.05822587,-0.766002357,7.29784069,7.297840690384558
9.137286561,7.474280834,1.335793257,-0.3448655605,7.600536157,7.6005361564672125
9.139792602,7.886145115,1.702194214,0.0,8.067759907,8.06775990700104
9.142298644,8.388936996,2.106880426,0.1387837082,8.65057628,8.650576279646414
9.144804686,8.982656479,2.508874655,-0.0382851623,9.326523211,9.326523211136848
9.147310727,9.588339806,2.959024191,-0.5219344497,10.04810927,10.048109273292711
9.149816769,10.15334511,3.411566973,-1.197009563,10.77784941,10.77784941572013
9.152322811,10.61306572,3.821038723,-1.848156333,11.43036232,11.430362318444354
9.154828852,10.9121685,4.184747696,-2.303091764,11.91183304,11.911833037991013
9.157334894,11.12782192,4.529613495,-2.396411896,12.25106563,12.251065630083325
9.159840936,11.17328548,4.905585289,-2.154736757,12.39152799,12.391527990413408
9.162346977,11.10867882,5.331807137,-1.637588024,12.43031001,12.4303100125632
9.164853019,11.03450203,5.892026424,-1.189831018,12.5655047,12.565504696691784
9.167359061,10.9746809,6.591030121,-1.144367456,12.85281587,12.852815869960402
9.169865102,10.93370438,7.464709282,-1.683051586,13.34542763,13.345427635529154
9.172371144,10.89302635,8.455936432,-2.813062191,14.07388372,14.07388371751923
9.174877238,10.7614212,9.47109127,-4.218546391,14.94342296,14.943422959332269
9.177383279,10.61785126,10.48624611,-5.609374523,15.94255956,15.942559562324213
9.179889321,10.49103165,11.38624668,-6.873383045,16.93965032,16.939650321727605
9.182395363,10.37348461,12.08315659,-7.855038643,17.75706868,17.757068683073527
9.184901404,10.39531898,12.68405342,-8.577970505,18.50755105,18.507551049288285
9.187407446,10.56999493,13.13390446,-9.104690552,19.1603661,19.160366103817317
9.189913488,10.82841969,13.41177082,-9.478269577,19.67149876,19.671498765606724
9.192419529,11.20199966,13.48594856,-9.813264847,20.09118643,20.091186423478632
9.194925571,11.62822056,13.31127262,-10.21077251,20.4123827,20.412382697934607
9.197431613,12.10947704,12.91855049,-10.67527866,20.67583023,20.675830223079746
9.199937654,12.62662601,12.29133129,-11.20917797,20.88430464,20.884304633864996
9.202443696,12.88983631,11.35035419,-11.48674488,20.66213272,20.66213271362013
9.204949738,12.91615772,10.4599247,-11.23310566,20.06040423,20.060404226892082
9.207455779,13.12194061,9.688838005,-11.44367409,19.925275,19.925275002810796
9.209961821,13.22513103,8.719446182,-11.51575851,19.58431839,19.58431838339289
9.212467863,12.98554897,7.538887024,-10.71356392,18.44558895,18.4455889437239
9.214973904,12.17886925,6.140880108,-8.946763992,16.31195422,16.311954224984
9.217479946,10.77817059,4.555934429,-6.372983932,13.32442959,13.324429593270352
9.219985988,9.102297783,2.769991398,-3.346960783,10.08597163,10.085971631842947
9.222492029,7.517351627,0.8306085467,-0.3520440459,7.57128926,7.5712892595689585
9.224998071,6.284449577,-1.053440213,2.063809633,6.698011121,6.698011120436018
9.227504113,5.56630373,-2.729313374,3.504886866,7.121595372,7.121595372637122
9.230010154,5.453841209,-4.100998878,3.880859137,7.850072826,7.850072825877492
9.232516196,5.966204166,-4.826622486,3.397209883,8.392431815,8.39243181455229
9.235022238,6.957131863,-4.764110088,2.425125837,8.773805561,8.773805560589896
9.237528279,8.25254631,-4.100998878,1.189831018,9.29184644,9.291846439080167
9.240034373,9.669695854,-3.018844843,-0.09810572863,10.13045245,10.130452449370784
9.242540415,11.13021469,-1.821835399,-1.39561379,11.36435221,11.364352208435792
9.245046457,12.65773296,-0.8859425783,-2.726920605,12.97841262,12.978412611898605
9.247552498,14.16102314,-0.2775674164,-3.976572037,14.71138149,14.71138148535727
9.25005854,15.61675739,-0.1076770201,-5.233402252,16.47067712,16.470677121782696
9.252564582,17.06022644,-0.0239282269,-6.586244106,18.28744132,18.287441323704567
9.255070623,18.40828323,0.1459621787,-8.08953476,20.10787829,20.10787828356732
9.257576665,19.53829384,0.7492526174,-9.250652313,21.63055417,21.630554174104624
9.260082707,20.28754616,1.599302888,-9.842277527,22.60559059,22.60559058817498
9.262588748,20.40479469,2.118844509,-9.779765129,22.72639335,22.726393342824462
9.26509479,19.77518272,2.377269268,-9.734301567,22.16902993,22.169029924181675
9.267600832,18.78874207,2.540280342,-10.20598698,21.53211608,21.532116083303777
9.270106873,17.99641991,2.267199516,-9.669695854,20.55515364,20.555153639203475
9.272612915,18.04906082,3.256033421,-8.001000404,20.00965661,20.009656608436245
9.275118957,19.61247253,8.534899712,-8.810373306,23.13258027,23.132580263018212
9.277624998,22.24367905,18.14477348,-14.8337059,32.31180733,32.311807331803884
9.28013104,25.00888443,30.02932549,-22.9594326,45.32483023,45.32483022727612
9.282637082,27.34547615,41.27200317,-29.25584602,57.50702425,57.50702424817909
9.285143123,28.59752083,48.36552429,-31.23112106,64.28394092,64.28394091943368
9.287649165,27.7283287,47.50381088,-30.06761169,62.68599153,62.685991524093126
9.290155207,24.42712975,40.85295868,-24.52523613,53.54564509,53.54564508870334
9.292661248,19.14557266,32.80858994,-9.609874725,39.18298379,39.18298378838195
9.29516729,12.35593796,24.41516495,13.55294704,30.53607466,30.536074663848368
9.297673332,8.348258972,16.00230026,32.47120285,37.15031704,37.150317037686534
9.300179425,7.71864748,8.101499557,38.97579193,40.55026721,40.550267207050986
9.302685467,7.514958382,2.195414782,37.766819,38.56976877,38.56976876942584
9.305191509,7.134500027,-0.9840483069,34.58525848,35.32717858,35.32717857166048
9.30769755,6.411269188,-5.803193092,26.10061073,27.49587793,27.495877930028453
9.310203592,5.89441967,-10.97707367,14.25673676,18.93396082,18.933960828274298
9.312709634,6.524031162,-14.82892036,1.94865489,16.31738697,16.317386969925376
9.315215675,7.01964426,-18.66670799,-7.474280834,21.29756481,21.29756480695341
9.317721717,6.930810928,-21.26441574,-13.99352551,26.38238566,26.382385659418006
9.320227759,6.274878502,-22.0806675,-18.62842369,29.562614,29.562614002056236
9.3227338,5.662016392,-21.81985092,-22.47099686,31.82938931,31.829389307312063
9.325239842,6.229414463,-21.21895218,-26.85943413,34.79193495,34.79193495557223
9.327745884,7.881359577,-20.26840401,-32.13112259,38.79862199,38.79862199599571
9.330251925,9.878170013,-18.18066597,-37.10370636,42.48293638,42.48293638118195
9.332757967,11.91296673,-15.06132317,-40.72613907,45.02644373,45.026443735767614
9.335264009,13.55055428,-11.24028397,-42.44029999,45.94714973,45.94714972947352
9.33777005,14.82892036,-6.744170666,-41.86093521,44.91902285,44.91902284857915
9.340276092,16.04297829,-2.164308071,-39.51926041,42.70636164,42.70636164780372
9.342782134,17.43141365,1.525125384,-35.65544891,39.71764377,39.7176437650567
9.345288175,19.55743599,4.752145767,-29.89981461,36.04268449,36.042684495000266
9.347794217,22.42553329,8.022536278,-21.46780586,32.0645025,32.06450249287169
9.350300259,26.46431923,12.37747288,-11.24507046,31.30516949,31.30516949088198
9.3528063,31.54218864,17.56780434,-0.2512463629,36.10540871,36.10540871205779
9.355312342,36.57220078,22.42553329,10.40728283,44.14455741,44.144557412405256
9.357818384,40.52723694,25.74617386,20.00758743,52.01563185,52.01563185417767
9.360324477,42.72743607,26.67757988,26.56003189,56.94525753,56.94525753183961
9.362830519,42.96701813,24.55634308,27.57040215,56.65073439,56.65073439205477
9.365336561,41.15445709,20.00758743,22.05434799,50.79751134,50.79751134067261
9.367842602,37.6543541,14.49631786,12.00150108,42.09548244,42.095482445977304
9.370348644,33.23002625,9.39452076,1.448554993,34.56284097,34.562840977753915
9.372854686,28.77698326,6.617351055,-7.062715054,30.36092957,30.360929571826816
9.375360727,24.39093781,5.776872158,-11.34317589,27.51286496,27.51286496264321
9.377866769,20.18944168,5.800800323,-11.54447174,23.96951538,23.96951537877011
9.380372811,16.45454407,6.454638958,-9.722337723,20.17271016,20.17271016571081
9.382878852,13.01904869,7.414460182,-7.170392036,16.60976732,16.60976732326454
9.385384894,9.655338287,8.585148811,-4.443471432,13.66289779,13.662897785990458
9.387890936,6.468996048,9.782157898,-2.827419043,12.0636985,12.063698498187131
9.390396977,3.521636724,10.90259743,-2.84656167,11.80556942,11.805569417761316
9.392903019,0.9768698215,11.91296673,-4.16081953,12.65643987,12.6564398674933
9.395409061,-0.9002995491,12.71755314,-7.103393078,14.59468706,14.594687059591646
9.397915102,-2.130808592,13.59362507,-10.60588741,17.37273253,17.372732529831627
9.400421144,-2.906382322,15.89910984,-13.31127262,20.93845101,20.93845100932685
9.402927186,-3.066701412,19.67229271,-15.76989746,25.39868941,25.398689413377145
9.405433227,-3.303889751,22.52603149,-17.86720657,28.94088549,28.940885487322006
9.407939269,-3.900001764,23.64886475,-18.53031731,30.29606372,30.29606372670023
9.410445311,-4.345366001,23.57947159,-16.93580055,29.35464233,29.35464233159117
9.412951352,-4.376472473,22.74168587,-13.56251907,26.83802733,26.838027331396734
9.415457394,-3.900001764,21.30270195,-9.657731056,23.71258934,23.71258934152413
9.417963436,-2.923131943,19.46650887,-6.27966404,20.66213562,20.6621356204349
9.420469477,-1.527518153,17.5749836,-3.856930971,18.0579422,18.057942207324523
9.422975519,0.1579262912,15.89193153,-2.573779821,16.0997755,16.099775496405133
9.425481561,1.903191328,14.72842121,-2.496910334,15.05931904,15.059319034610704
9.427987654,3.734897137,14.47238922,-3.339782238,15.31514452,15.315144522870272
9.430493696,5.621338367,15.19532108,-4.208974838,16.73955486,16.739554861092206
9.432999738,7.452745438,16.59601974,-4.579862595,18.76023527,18.760235264067973
9.435505779,9.042476654,18.15673828,-4.570291042,20.79233246,20.7923324621154
9.438011821,10.37587738,19.5837574,-4.673182487,22.64996733,22.64996732588491
9.440517863,11.37189007,20.65873337,-4.960620403,24.09794396,24.097943957930852
9.443023904,12.01107216,21.38644981,-5.377270699,25.11097629,25.110976286849144
9.445529946,12.3104744,21.69781685,-5.609374523,25.56967185,25.5696718506218
9.448035988,11.9225378,21.49173546,-5.47298336,25.17926027,25.179260265819707
9.450542029,11.03210926,21.10409737,-4.915156841,24.31561488,24.315614886295755
9.453048071,9.808479309,20.5749855,-4.093820572,23.15805825,23.158058242348854
9.455554113,8.288438797,19.96930122,-3.330210924,21.87604886,21.876048859541275
9.458060154,6.614958286,19.33221245,-2.822633505,20.62666651,20.62666650821222
9.460566196,4.905585289,18.64038658,-2.573779821,19.44615956,19.44615955520483
9.463072238,3.291925669,18.15195274,-2.310270309,18.59213575,18.592135751065864
9.465578279,1.747657895,17.70449448,-1.876870275,17.88927262,17.889272621867132
9.468084321,0.3376871049,17.33809471,-1.427019596,17.39999844,17.39999843911239
9.470590363,-0.8401798606,17.09611893,-1.347757339,17.16973018,17.169730181679924
9.473096404,-1.781157374,16.89272881,-1.625623941,17.0639814,17.06398140636326
9.475602446,-2.456232548,16.80180168,-1.893620014,17.08564938,17.085649381317843
9.478108488,-2.927917719,16.67737579,-1.888834357,17.03746638,17.037466379667368
9.480614529,-3.358924866,16.33968925,-1.59691,16.75762342,16.757623417122687
9.483120623,-3.66789794,15.84646797,-1.347757339,16.32116639,16.3211663880778
9.485626665,-3.833002806,15.19053555,-1.297508121,15.72029923,15.720299237949595
9.488132707,-3.804288864,14.48196125,-1.446162224,15.04297845,15.042978447946423
9.490638748,-3.579064369,13.75902939,-1.663909078,14.31395071,14.313950710135199
9.49314479,-3.241676569,13.09322643,-1.958226204,13.62995581,13.629955802983602
9.495650832,-2.765205622,12.79412365,-2.286342144,13.28771322,13.287713215706464
9.498156873,-2.255235434,12.85394382,-2.403590441,13.26978544,13.269785439054843
9.500662915,-1.907976985,13.10040474,-2.087737799,13.4022248,13.402224802042292
9.503168957,-1.838585138,13.13868999,-1.225723386,13.32321162,13.323211616648141
9.505674998,-2.001596212,13.01665592,0.1770688742,13.17084174,13.170841739303311
9.50818104,-2.195414782,12.72951698,1.742872238,13.03449471,13.034494706244795
9.510687082,-2.43708992,12.15494061,2.731706142,12.69425881,12.694258818735078
9.513193123,-2.683849812,11.2378912,2.825026274,11.89428526,11.894285261637213
9.515699165,-2.779562712,10.20837975,1.943869352,10.75711922,10.757119226251783
9.518205207,-2.62402916,9.463912964,0.5267201066,9.835070497,9.835070497632149
9.520711248,-2.195414782,9.356235504,-0.6583253145,9.632880207,9.632880207448123
9.52321729,-1.771586061,9.686445236,-1.458126307,9.954489982,9.954489982350783
9.525723332,-1.424626827,10.33519936,-1.927119493,10.60941548,10.609415485664282
9.528229373,-1.220937729,11.07996559,-1.59691,11.26083691,11.260836912138446
9.530735415,-1.232901812,11.64257812,-0.1555334777,11.70870885,11.708708845172515
9.533241457,-1.544267893,11.78375435,1.843370795,12.02662238,12.026622376808609
9.535747498,-2.042274237,11.48913765,3.689433336,12.23859005,12.238590047082612
9.53825354,-2.592922449,10.88345432,4.972584724,12.24334201,12.243342011044735
9.540759582,-3.033201694,10.10548782,5.264508724,11.79136331,11.791363309716353
9.543265623,-3.272783279,9.356235504,4.342973232,10.82181453,10.821814528602895
9.545771717,-3.32063961,9.025727272,2.657528639,9.977617886,9.977617885804742
9.548277759,-3.315854073,9.133403778,0.950548768,9.763067948,9.763067948435147
9.5507838,-3.308675528,9.569196701,-0.5243272781,10.13862803,10.138628030782819
9.553289842,-3.435495138,10.19402313,-1.568196177,10.8710613,10.871061294452996
9.555795884,-3.691826344,10.9121685,-2.003988981,11.69277448,11.69277447668491
9.558301925,-4.022035599,11.7023983,-1.907976985,12.52051407,12.520514067192124
9.560807967,-4.496113777,12.36550903,-1.400399446,13.23185442,13.23185441557977
9.563314009,-5.075475693,12.83001614,-0.6248258352,13.81159567,13.811595671291123
9.56582005,-5.681159019,13.04058456,0.2440679073,14.22645362,14.22645362024736
9.568326092,-6.212665081,13.12911892,0.9242277741,14.55421478,14.55421478481737
9.570832134,-6.492924213,13.15543938,1.271187067,14.72547339,14.725473393949837
9.573338175,-6.658029079,13.0956192,1.347757339,14.75266225,14.752662244254308
9.575844217,-6.763313293,12.83240891,1.232901812,14.55792471,14.557924715107946
9.578350259,-6.966702938,11.96321583,1.189831018,13.89493363,13.89493363326703
9.5808563,-7.431210041,10.05763149,0.9960124493,12.54475487,12.544754866527262
9.583362342,-7.936394691,7.764111042,0.1507478207,11.1036258,11.103625798327549
9.585868384,-8.101499557,6.152844429,-1.110867858,10.23356326,10.233563262006301
9.588374425,-7.687541008,5.843871117,-2.114058733,9.885259769,9.885259769392105
9.590880467,-6.734599113,6.746563435,-2.257628202,9.796317088,9.796317088261544
9.593386509,-5.458626747,8.429615021,-1.58016026,10.16621472,10.166214723908594
9.59589255,-4.105784416,10.41446114,-0.6750751138,11.2149094,11.214909402955989
9.598398592,-3.00688076,12.41336536,-0.05982056633,12.77249193,12.772491924673984
9.600904634,-2.317448616,14.29502201,0.1292124242,14.48222767,14.482227667204807
9.603410675,-2.08534503,15.96371651,-0.0143569354,16.09935138,16.099351379089356
9.605916769,-2.209771633,17.37398529,-0.3568296731,17.51758496,17.517584963194913
9.608422811,-2.319841623,18.62124443,-0.6966105103,18.77811693,18.778116931169368
9.610928852,-2.365305185,19.75604057,-0.8715856671,19.91621122,19.916211215910717
9.613434894,-2.413161755,20.79033852,-0.8377870321,20.94668022,20.94668022726144
9.615940936,-2.463410854,21.6667099,-0.7157530785,21.8180433,21.81804329897036
9.618446977,-2.461018085,22.36810684,-0.6798607111,22.51335213,22.513352131720616
9.620953019,-2.35812664,22.89961243,-0.9337990284,23.03963956,23.039639565755557
9.623459061,-2.255235434,23.30908394,-1.623231053,23.47412107,23.4741210705781
9.625965102,-2.16670084,23.61297226,-2.714956284,23.86709113,23.867091132050785
9.628471144,-2.161915302,23.85255432,-4.139284134,24.30538826,24.30538826070377
9.630977186,-2.274377823,23.96740913,-5.671587944,24.73411419,24.73411418856733
9.633483227,-2.520838737,23.83071899,-7.144071102,25.00591025,25.00591024995367
9.635989269,-2.860918522,23.36172485,-8.415258408,24.99543192,24.995431919253665
9.638495311,-3.244069338,22.48056793,-9.363413811,24.56773165,24.567731651927527
9.641001352,-3.670290947,21.23091698,-9.880562782,23.70334137,23.703341374926996
9.643507394,-4.079463482,19.73211288,-9.981060982,22.48599296,22.48599295864953
9.646013436,-4.445864677,18.15673828,-9.607481956,21.01753,21.017529998300926
9.648519477,-4.764110088,16.67259026,-8.729017258,19.41308201,19.41308201185201
9.651025519,-5.053940296,15.39631844,-7.462316513,17.8402663,17.84026630299024
9.653531561,-5.264508724,14.37189102,-5.973382473,16.43008222,16.430082220262086
9.656037602,-5.324329376,13.65105343,-4.395615101,15.29775066,15.297750657171482
9.658543644,-5.089832783,13.22513103,-2.951845884,14.47493982,14.474939814812982
9.661049686,-4.491328239,13.06929779,-1.838585138,13.94126857,13.941268571540116
9.663555727,-3.629313707,13.10519028,-0.9984052777,13.63505568,13.635055678557523
9.666061821,-2.691028118,13.2777729,-0.4932205677,13.55670137,13.55670137032764
9.668567863,-1.726122379,13.46919823,-0.375972271,13.58455573,13.584555737118556
9.671073904,-0.8452646136,13.63908863,-0.5434698462,13.67605829,13.676058291690932
9.673579946,-0.04546362907,13.7853508,-0.8763712645,13.81325415,13.813254150049879
9.676085988,0.7061817646,13.86431313,-1.340578914,13.94686427,13.946864273950807
9.678592029,1.37886405,13.885849,-1.929512382,14.08691189,14.086911888397497
9.681098071,1.980060697,13.87149239,-2.702992201,14.27042775,14.27042775561752
9.683604113,2.461018085,13.79013634,-3.543172121,14.44917087,14.449170874812067
9.686110154,2.88006115,13.58883953,-4.424329281,14.57827156,14.578271556893975
9.688616196,3.332603693,13.28734398,-5.386841774,14.71998036,14.719980357172727
9.691122238,3.82821703,12.91137218,-6.413661957,14.91622731,14.916227301094906
9.693628279,4.405186653,12.51865005,-7.414460182,15.20185806,15.201858054612858
9.696134321,5.068297386,12.17886925,-8.376973152,15.62645749,15.626457493330303
9.698640363,5.827121258,11.8722887,-9.214759827,16.11888271,16.11888270944597
9.701146404,6.634100914,11.65454197,-9.933204651,16.68856489,16.688564890555305
9.703652446,7.457530975,11.46520996,-10.5915308,17.29873788,17.298737883363522
9.706158488,8.254939079,11.30489063,-11.18285656,17.91649665,17.9164966496187
9.708664529,9.198010445,11.21635628,-11.97039413,18.80692373,18.80692372435649
9.711170571,10.21795082,11.31924725,-12.34158134,19.61750512,19.6175051226808
9.713676613,11.19721317,11.40538883,-11.9225378,19.94009491,19.94009490274154
9.716182654,12.16211891,11.30967617,-11.37667561,20.13093787,20.13093786653802
9.718688696,13.03579903,11.02253723,-10.84038353,20.22232178,20.222321785956733
9.721194738,13.6534462,10.5723877,-10.16770172,20.03931468,20.039314685944145
9.723700832,13.998312,10.10548782,-9.368199348,19.64272847,19.642728475275018
9.726206873,14.0988102,9.696016312,-8.28126049,19.00969375,19.009693755592938
9.728712915,14.02463245,9.305986404,-6.966702938,18.21610958,18.216109577386817
9.731218957,13.77817154,8.894122124,-5.721837044,17.3690195,17.369019503137846
9.733724998,13.40937805,8.482256889,-4.622933388,16.52669401,16.52669400481218
9.73623104,12.87069416,7.979465485,-3.691826344,15.58705294,15.587052939565478
9.738737082,12.28415298,7.514958382,-3.100499868,14.7305164,14.730516397964566
9.741243123,11.60668564,6.971488953,-2.851347208,13.83643706,13.836437065522059
9.743749165,11.00339508,6.547959328,-2.760420084,13.09848822,13.098488221465141
9.746255207,10.49342442,6.262914181,-2.892025232,12.55786048,12.557860488130448
9.748761248,9.949954987,6.014060497,-3.248854876,12.0716853,12.071685297016778
9.75126729,9.425627708,5.839085579,-3.93828702,11.76637084,11.766370839838578
9.753773332,8.934800148,5.700301647,-4.457828522,11.49766618,11.497666184189226
9.756279373,8.453543663,5.592624664,-4.963013172,11.28589167,11.285891672352436
9.758785415,8.140083313,5.544768333,-5.504090309,11.28274888,11.282748882202792
9.761291457,8.010572433,5.482554913,-6.006882191,11.41535425,11.415354253589896
9.763797498,7.981858253,5.358128071,-6.497709751,11.60344042,11.603440421033017
9.76630354,8.065607071,5.216652393,-6.928418159,11.84358298,11.84358297978778
9.768809582,8.240582466,5.080261707,-7.237390995,12.08702142,12.087021419897637
9.771315623,8.575576782,4.941477776,-7.462316513,12.3953575,12.395357497663062
9.773821665,8.989834785,4.759324074,-7.522137165,12.65112021,12.651120212535576
9.776327707,9.516554832,4.551148891,-7.414460182,12.8938742,12.893874200137699
9.778833748,10.08634567,4.278367043,-7.120142937,13.06656914,13.066569135494875
9.78133979,10.70877838,4.014857292,-6.631708145,13.22030886,13.220308861276289
9.783845884,11.37906837,3.806681633,-6.116951942,13.46815218,13.468152177819034
9.786351925,12.04696465,3.64127779,-5.595017433,13.77288936,13.772889359094945
9.788857967,12.67687511,3.49531579,-5.152046204,14.12317157,14.123171567127253
9.791364009,13.17697525,3.344567776,-4.768895626,14.40698358,14.406983578773596
9.79387005,13.56251907,3.16032052,-4.436293125,14.61541125,14.615411249915926
9.796376092,13.78774357,2.863311291,-4.16081953,14.68376122,14.683761216475629
9.798882134,13.86192036,2.511267424,-3.921537161,14.62319232,14.623192327495731
9.801388175,13.79970741,2.202593327,-3.799503326,14.48169768,14.481697672926295
9.803894217,13.60558987,1.970489502,-3.799503326,14.26292852,14.262928525110958
9.806400259,13.31605816,1.800299883,-3.806681633,13.9660055,13.96600550065236
9.8089063,12.96879959,1.639980793,-3.847359657,13.62649904,13.626499041841388
9.811412342,12.55693531,1.438983679,-3.892823458,13.22502828,13.225028275323584
9.813918384,12.08794212,1.180259824,-3.87368083,12.7482062,12.748206192297333
9.816424425,11.60429287,1.007976532,-3.782753468,12.24683034,12.246830345091812
9.818930467,11.19242764,0.97926265,-3.636492252,11.80904177,11.809041777941893
9.821436509,10.82602692,1.132403374,-3.442673683,11.4165318,11.41653180092939
9.82394255,10.54845905,1.412662625,-3.203391314,11.1142845,11.114284499337304
9.826448592,10.30887794,1.699801445,-2.954238653,10.85770765,10.85770764724866
9.828954686,10.12223816,1.934298038,-2.714956284,10.65702594,10.65702594027067
9.831460727,9.990633011,2.13559413,-2.523231506,10.52331732,10.523317323042408
9.833966769,9.899705887,2.317448616,-2.413161755,10.4497892,10.449789203266134
9.836472759,9.847063065,2.43708992,-2.470589399,10.44068342,10.440683419331513
9.838978852,9.772586823,2.458625317,-2.726920605,10.43955879,10.439558786100116
9.841484894,9.717552185,2.446661234,-3.117249727,10.4944851,10.494485100405749
9.843990936,9.612267494,2.492124796,-3.619742393,10.56924346,10.569243462364202
9.846496977,9.408877373,2.57617259,-4.17517662,10.61111391,10.611113911452147
9.849003019,9.054440498,2.726920605,-4.718646049,10.56809393,10.568093927172457
9.851509061,8.563612938,2.992523909,-5.207081318,10.459654,10.45965399762737
9.854015102,7.91007328,3.346960783,-5.647659779,10.27946821,10.279468213737726
9.856521144,7.189534664,3.854538202,-5.990132332,10.12069952,10.12069952080422
9.859027186,6.492924213,4.517649174,-6.167201042,10.03003428,10.03003427648931
9.861533227,5.935097694,5.353342533,-6.267699718,10.15715121,10.15715120828514
9.864039269,5.58066082,6.246164322,-6.320342064,10.49309619,10.493096193749325
9.866545311,5.446662426,7.156035423,-6.363412857,11.01671447,11.016714471504827
9.869051352,5.58066082,8.08953476,-6.370591164,11.7119076,11.711907598677774
9.871557394,5.93031168,9.008976936,-6.344270229,12.51319411,12.51319410837617
9.874063436,6.425626278,9.837491989,-6.310770512,13.33756897,13.33756897464047
9.876569477,7.029215813,10.53649521,-6.31316328,14.15216015,14.152160148048868
9.879075519,7.680362701,11.06082249,-6.372983932,14.89780821,14.897808213684723
9.881581561,8.362615585,11.42692471,-6.361020088,15.52322532,15.523225319192948
9.884087654,9.090332985,11.67607689,-6.339484692,16.09826051,16.09826051098296
9.886593696,9.875777245,11.8148613,-6.457031727,16.6977598,16.6977598034761
9.889099738,10.69681454,11.83161068,-6.7202425,17.30810538,17.308105379996153
9.891605779,11.44606686,11.72871971,-7.03400135,17.83402612,17.834026118382088
9.894111821,12.04457188,11.51575851,-7.254140854,18.1743491,18.174349104240182
9.896617863,12.46840096,11.21874905,-7.258926392,18.27603253,18.276032531998812
9.899123904,12.78455257,10.81645584,-7.031608582,18.16270962,18.162709616249987
9.901629946,13.01904869,10.3471632,-6.545566559,17.87187334,17.87187333936552
9.904135988,13.11236858,9.703194618,-5.779264927,17.30566667,17.30566666352405
9.906642029,13.08604813,8.798408508,-4.737788677,16.46521453,16.46521452888582
9.909148071,12.89462185,7.560422421,-3.483351469,15.34812683,15.348126833429589
9.911654113,12.47557926,6.026024818,-2.19780755,14.02795106,14.027951062308816
9.914160154,11.84836006,4.290330887,-0.9625129104,12.63791938,12.637919383111923
9.916666196,11.11107159,2.51844573,0.1028913707,11.39337822,11.393378226286744
9.919172238,10.32562828,0.794716239,0.9720842242,10.40168837,10.401688373346154
9.921678279,9.612267494,-0.7971090674,1.561017632,9.770764826,9.770764826202461
9.924184321,8.97308445,-2.171486616,1.93190515,9.432065319,9.432065318841651
9.926690363,8.482256889,-3.308675528,2.106880426,9.345317588,9.345317587435751
9.929196404,8.20468998,-4.237689018,2.003988981,9.449387161,9.449387160930577
9.931702446,8.199904442,-4.900799751,1.561017632,9.679516884,9.67951688385055
9.934208488,8.46072197,-5.26690197,0.7636095285,9.995357528,9.995357528735356
9.936714529,9.004191399,-5.314758301,-0.2344966233,10.45835107,10.458351075299255
9.939220623,9.715159416,-4.802694321,-1.338186026,10.91974986,10.91974986249414
9.941726665,10.35673428,-3.148356438,-2.26241374,11.05859887,11.058598877713393
9.944232707,11.02014446,-1.18743825,-3.514458179,11.62776891,11.627768909329586
9.946738748,11.86750317,0.4668995142,-5.183153152,12.95842209,12.95842209697646
9.94924479,12.77498055,0.9601200819,-6.997809887,14.59764713,14.597647133669895
9.951750832,13.69412422,0.6104688644,-8.908478737,16.34817127,16.348171267599735
9.954256873,14.68295765,0.347258389,-10.88584709,18.28145237,18.281452365916824
9.956762915,15.55932903,0.9912267923,-11.78614712,19.54452646,19.544526455042558
9.959268957,16.10279846,2.080559254,-10.91934681,19.56683367,19.566833668476885
9.961774998,15.97807312,3.356531858,-9.698409081,18.99010967,18.990109674360987
9.96428104,14.99910927,4.599005222,-9.205188751,18.18954721,18.189547214455892
9.966787082,13.53141212,5.386841774,-8.886942863,17.06150438,17.061504380025255
9.969293123,12.09272766,6.34187746,-8.592327118,16.13324386,16.133243854826695
9.971799165,11.07278633,8.372187614,-8.164011955,16.10438492,16.10438492321991
9.974305207,11.27856922,13.63669586,-8.08953476,19.45780487,19.45780486750036
9.976811248,12.86590862,23.04557419,-10.9049902,28.55781689,28.557816891826317
9.97931729,15.31256962,34.19971848,-17.26630974,41.25798085,41.25798085844991
9.981823332,17.82174301,45.61706924,-22.4638195,53.88093092,53.88093091706953
9.984329373,19.44018936,54.32933807,-22.41596222,61.90374221,61.90374221099622
9.986835415,18.78395653,54.84409332,-18.33889198,60.80317882,60.803178815485516
9.989341457,15.43490219,46.90291214,-9.176474571,50.2227743,50.222774299909354
9.99184755,10.00977516,35.05425262,9.461520195,37.66319942,37.663199411373995
9.994353592,6.011667728,21.51326942,26.87139893,34.94328248,34.94328247982134
9.996859634,6.909275532,9.456734657,36.68227005,38.50658197,38.506581966868026
9.999365675,10.98425198,1.309472203,37.35525131,38.95873855,38.95873855046927
10.00187172,14.58245945,-3.718147278,31.6498642,35.04549395,35.04549395671624
10.00437776,16.93580055,-6.866204739,22.69352913,29.13695887,29.13695886947375
10.0068838,18.41785431,-9.530911446,13.2777729,24.62427428,24.624274274785314
10.00938984,18.90150452,-14.3383913,2.169093609,23.82354519,23.82354518698048
10.01189588,19.73689842,-15.8249321,-6.274878502,26.06430002,26.064300017953116
10.01440193,20.54148483,-16.09322739,-14.29502201,29.75386061,29.753860608562224
10.01690797,19.68664932,-17.15623856,-20.45265198,33.16943858,33.16943858420406
10.01941401,17.60369682,-18.70738602,-23.13171577,34.56779872,34.56779871348241
10.02192005,14.98714542,-20.35215378,-22.71985054,33.98553074,33.985530743022586
10.02442609,12.36550903,-22.01606178,-21.38166428,33.08758615,33.08758615031348
10.02693213,10.64895821,-23.34019089,-21.80070877,33.66653716,33.66653716399001
10.02943818,10.19162941,-23.64647102,-25.29123878,36.09254301,36.09254300762766
10.03194422,11.44128132,-22.14048958,-31.36751175,40.06276314,40.062763140750256
10.03445026,14.13948822,-18.74088669,-37.89632797,44.57889226,44.578892254751494
10.0369563,16.97408485,-13.87627792,-42.09064865,47.45833277,47.45833276871224
10.03946234,19.52393723,-7.737790108,-42.50251389,47.40802893,47.408028936943644
10.04196844,22.01606178,-0.8715856671,-39.96940994,45.64011798,45.640117975610465
10.04447448,24.65205574,5.463412285,-35.3967247,43.47989013,43.47989012740886
10.04698052,27.40290451,10.56760216,-27.83630371,40.46545682,40.465456814813976
10.04948656,30.2446804,15.03978729,-16.99801445,37.81360059,37.813600588531614
10.0519926,33.13670349,19.68904114,-2.81545496,38.64746105,38.64746105281147
10.05449864,35.68894958,24.28326225,12.46122169,44.92950027,44.92950026022306
10.05700469,36.94099426,28.51377106,25.21227455,53.04084261,53.04084261174613
10.05951073,36.2491684,30.83839989,33.01467133,57.92216881,57.92216881725886
10.06201677,33.71367645,29.36112976,34.9633255,56.75492975,56.75492974691972
10.06452281,30.07239723,24.22822571,29.72513771,48.73335416,48.73335416418698
10.06702885,25.82274437,17.35723686,19.41147423,36.6727846,36.672784595588915
10.06953489,21.66192436,11.01775169,6.672386169,25.20219349,25.2021934852727
10.07204094,18.22373772,6.430411816,-5.465805054,20.0830734,20.08307340769921
10.07454698,15.83928967,3.79471755,-15.2096777,22.28491135,22.28491135886172
10.07705302,14.23520088,3.021237612,-21.46062851,25.92927683,25.929276828448977
10.07955906,12.94008541,3.816252947,-23.41915321,27.0271407,27.02714069314463
10.0820651,11.44128132,5.731408596,-21.5970192,25.10344998,25.10344998327625
10.08457114,9.490233421,7.608577728,-16.50000763,20.4989082,20.498908195758652
10.08707719,7.409674644,8.927620888,-10.16770172,15.42685488,15.426854874428598
10.08958323,5.343770981,9.432806015,-4.558327198,11.76061497,11.760614969380827
10.09208932,3.313461065,9.298808098,-0.5650052428,9.887673498,9.887673497698678
10.09459536,1.247258782,8.944371223,1.5011971,9.154836087,9.154836086853496
10.0971014,-0.6511468887,8.494221687,1.316650629,8.620287885,8.620287884833713
10.09960745,-2.109273195,8.38175869,-0.7181459069,8.672868366,8.672868365894482
10.10211349,-2.702992201,9.669695854,-4.271188259,10.91110599,10.911105988457406
10.10461953,-2.061416626,11.98714447,-10.0145607,15.75539581,15.755395807931494
10.10712557,-0.8763712645,13.67976665,-15.45643806,20.65927201,20.659272003008965
10.10963161,0.5841478109,14.45324707,-17.98445511,23.07982247,23.07982246758081
10.11213765,2.104487419,14.81695557,-17.51037788,23.03441714,23.034417143927836
10.1146437,3.397209883,15.18335724,-14.92971802,21.56320598,21.56320598202702
10.11714974,4.388436794,15.30060482,-11.24267673,19.48755155,19.48755154984904
10.11965578,5.092225552,14.7643137,-7.16321373,17.18218121,17.182181207463444
10.12216182,5.678766251,13.6606245,-4.038785458,15.33534597,15.335345964119922
10.12466786,6.380162239,12.40379429,-2.702992201,14.2079819,14.207981905368015
10.1271739,7.225427151,11.50857925,-3.107678413,13.93957887,13.939578866901423
10.12967995,8.314759254,11.21635628,-4.575077057,14.69262399,14.69262399060705
10.13218599,9.62901783,11.58036423,-6.454638958,16.38551751,16.385517512365997
10.13469203,10.96750259,12.46122169,-8.245368004,18.53521656,18.535216550943506
10.13719807,12.27218914,13.69412422,-9.676874161,20.77925788,20.7792578781956
10.13970411,13.45484161,15.07807255,-10.60110188,22.82026283,22.820262830287263
10.14221021,14.44606876,16.51914978,-10.9746809,24.53599057,24.535990563446724
10.14471625,15.11875057,17.79781532,-10.61067295,25.65005321,25.650053204907078
10.14722229,15.29581928,18.8368988,-9.535696983,26.07144724,26.071447232546497
10.14972833,14.89861107,19.65315056,-8.060821533,25.94593961,25.945939615593637
10.15223437,13.90738392,20.01237297,-6.610172749,25.25083728,25.250837276420825
10.15474042,12.60718441,20.08894157,-5.403591633,24.32499691,24.3249969103153
10.15724646,11.05364418,19.96212196,-4.486542225,23.25507308,23.255073079667373
10.1597525,9.454340935,19.87328911,-3.744468451,22.32382643,22.323826431537128
10.16225854,7.895716667,19.80389786,-3.057130098,21.53793761,21.53793761182699
10.16476458,6.437590122,19.75364876,-2.427518606,20.91750588,20.917505886094492
10.16727062,5.1233325,19.82782555,-1.8840487,20.56552555,20.565525557368105
10.16977666,3.89043045,19.80628967,-1.48444736,20.23927231,20.239272307641077
10.17228271,2.796312332,19.72732735,-1.213759303,19.96146334,19.961463340090383
10.17478875,1.821835399,19.54307938,-0.9122636318,19.64900152,19.649001521907813
10.17729479,0.9529415965,19.33221245,-0.6104688644,19.3653094,19.365309399353183
10.17980083,0.2033899277,19.10250092,-0.4429712892,19.10871875,19.10871875412756
10.18230687,-0.4214358926,18.91586113,-0.4525425732,18.92596643,18.925966429262598
10.18481292,-1.02711916,18.62124443,-0.4668995142,18.65539367,18.65539367172415
10.18731896,-1.594517231,18.21655846,-0.6559324861,18.29797078,18.297970782381167
10.189825,-1.992024899,17.80260086,-0.8691928387,17.93477786,17.934777856710575
10.19233104,-2.214557409,17.44098473,-0.8763712645,17.60284748,17.602847481674416
10.19483713,-2.267199516,17.09133339,-0.5338985324,17.24931646,17.249316459975404
10.19734318,-2.178664923,16.67976761,0.0382851623,16.821495,16.82149500264373
10.19984922,-1.960619092,16.17697716,0.7444669604,16.31235263,16.312352629654736
10.20235526,-1.575374603,15.62632847,1.350150228,15.76346574,15.763465742985533
10.2048613,-0.950548768,15.10678673,1.570588946,15.21792686,15.217926859574131
10.20736734,-0.1770688742,14.67817211,1.204187989,14.7285491,14.728549099957002
10.20987338,0.5673980713,14.33360577,0.4334000051,14.3513773,14.351377303433736
10.21237942,1.182652593,14.08684635,-0.5769693851,14.14817306,14.14817305928863
10.21488547,1.58016026,13.89063454,-1.673480392,14.08002738,14.080027379005084
10.21739151,1.699801445,13.63908863,-2.477767944,13.96615185,13.966151853453884
10.21989755,1.58016026,13.36391449,-2.676671267,13.72062994,13.720629942349536
10.22240359,1.333400369,13.2275238,-2.300698996,13.49216656,13.49216655299701
10.22490963,0.9337990284,13.00229931,-1.960619092,13.18240476,13.182404757713297
10.22741568,0.3951148391,12.64576817,-2.035095692,12.81456916,12.814569162521973
10.22992172,-0.1722832322,12.17169094,-2.528316259,12.43270385,12.43270384737363
10.23242776,-0.7468597889,11.8220396,-3.215355396,12.27423848,12.274238476208218
10.2349338,-1.230509043,11.92014503,-4.108177185,12.6681147,12.668114691006434
10.23743984,-1.62801671,12.39183044,-5.199902534,13.53687137,13.536871367670207
10.23994588,-2.087737799,12.9831562,-6.322734833,14.59102361,14.591023603551717
10.24245193,-2.588136673,13.53380489,-7.230212688,15.56079374,15.560793737866703
10.24495802,-3.172284603,13.94327641,-7.522137165,16.15737893,16.1573789389606
10.24746406,-3.880859137,14.10838127,-7.024429798,16.2311461,16.23114609902682
10.2499701,-4.795515537,13.9863472,-5.740979671,15.86107578,15.861075778376179
10.25247614,-5.89441967,13.4213419,-3.79471755,15.14187844,15.141878447770491
10.25498219,-7.060322285,12.37268734,-1.551446438,14.32963813,14.329638126325689
10.25748823,-7.991429329,11.28574753,0.2153540403,13.83030793,13.830307928385977
10.25999427,-8.542078018,10.36151981,1.094118118,13.47313194,13.473131933398305
10.26250031,-8.796015739,9.593125343,1.285543919,13.07863028,13.078630275947189
10.26500635,-8.721838951,9.008976936,1.175474167,12.59420024,12.594200238119335
10.26751239,-8.41047287,8.53729248,1.137188911,12.03804865,12.038048654386305
10.27001844,-7.993822098,8.11824894,1.292722464,11.46639826,11.466398255564581
10.27252448,-7.440781116,7.855038643,1.505982757,10.92404869,10.924048689182358
10.27503052,-6.796812534,7.754539967,1.604088426,10.43564327,10.435643267214868
10.27753656,-6.227021694,7.847859859,1.687837243,10.15940442,10.159404416741562
10.2800426,-5.796014786,8.084749222,1.845763564,10.11749972,10.117499716646906
10.28254864,-5.475376606,8.424829483,2.018345833,10.24847407,10.248474066745088
10.28505469,-5.226223946,8.798408508,2.099701881,10.44672949,10.446729488048666
10.28756073,-5.092225552,9.15733242,2.200200319,10.70646438,10.706464382164285
10.29006677,-5.04676199,9.370592117,2.403590441,10.91123505,10.911235045353843
10.29257281,-5.085047245,9.439984322,2.679064035,11.05207644,11.052076437806535
10.29507885,-5.293222904,9.291629791,3.083451033,11.12925259,11.12925258754323
10.29758495,-5.75772953,8.417651176,3.835395575,10.89580469,10.895804691631444
