Time (s),Acceleration x (m/s^2),Acceleration y (m/s^2),Acceleration z (m/s^2),Absolute acceleration (m/s^2),magnitude
5.982973717,10.88345432,3.619742393,-0.1842473447,11.47109673,11.471096722250975
5.985479759,10.58435154,3.988536358,-0.3927220106,11.3177361,11.317736097780244
5.9879858,10.05763149,4.409972191,-0.6702894568,11.0024131,11.002413093041463
5.99049179,9.619445801,4.896014214,-0.9529415965,10.83571827,10.83571826822784
5.992997832,9.095118523,5.405984402,-0.950548768,10.62305941,10.623059411602258
5.995503873,8.398508072,5.94466877,-0.7731808424,10.31851895,10.31851894583311
5.998009863,7.333104134,6.524031162,-0.2273181528,9.817793662,9.817793661787121
6.000515905,6.152844429,7.057929516,0.3975076675,9.371759491,9.371759491473393
6.003021946,4.91754961,7.627720356,1.096511006,9.141485021,9.141485020631334
6.005527936,3.749253988,8.166404724,1.663909078,9.138690552,9.138690551854474
6.008033978,2.48733902,8.702695847,2.269592285,9.331388939,9.33138893980618
6.010539967,1.156331539,9.198010445,2.968595505,9.734118247,9.734118247007348
6.013046009,-0.1148554832,9.545269012,3.617349625,10.20835788,10.208357879843174
6.01555205,-1.347757339,9.736694336,4.311866283,10.73367865,10.7336786462049
6.018058092,-2.564208508,9.794121742,5.216652393,11.38918119,11.389181189137757
6.020564082,-3.725325823,9.688838005,6.169594288,12.07541006,12.07541005735065
6.023070123,-4.826622486,9.399306297,7.074679375,12.71590861,12.715908608756004
6.025576113,-5.89441967,8.949156761,7.826324463,13.26962488,13.269624884644898
6.028082155,-6.916453838,8.333902359,8.41047287,13.71230528,13.712305281007156
6.030588196,-7.914859295,7.558029652,8.791230202,14.03761156,14.037611561256284
6.033094238,-8.731410027,6.693921566,8.851051331,14.12045384,14.120453840275564
6.035600228,-9.20758152,5.87258482,8.628219604,13.91808117,13.918081169844852
6.038106269,-9.583553314,5.111368179,8.072785378,13.53293917,13.532939168666383
6.040612259,-9.928419113,4.433900356,7.301997185,13.09779147,13.097791468032637
6.0431183,-10.14138031,3.928715706,6.46421051,12.65181486,12.651814858281055
6.045624342,-10.12223816,3.660719633,5.532804012,12.10258211,12.102582114342177
6.048130384,-9.890133858,3.677469254,4.541577339,11.48757819,11.487578185561636
6.050636373,-9.487840652,3.964607954,3.557528973,10.88086618,10.88086618153161
6.053142415,-9.042476654,4.465006828,2.48733902,10.38698827,10.386988274405445
6.055648457,-8.582756042,5.1233325,1.369292736,10.08896426,10.08896425699418
6.058154446,-8.233403206,5.846263885,0.6104688644,10.11634331,10.116343311692628
6.060660488,-8.079963684,6.629314899,0.5913262963,10.46820405,10.468204046232483
6.06316653,-8.312366486,7.361817837,1.470090389,11.20057874,11.200578744626437
6.065672519,-8.992227554,8.010572433,3.018844843,12.41542795,12.415427953693905
6.068178561,-9.815657616,8.597112656,4.505684853,13.8042992,13.80429920166351
6.070684603,-10.66092205,9.035298347,5.461019516,15.00381983,15.00381982461833
6.073190592,-11.65454197,9.226723671,5.740979671,15.93485569,15.934855688531306
6.075696634,-12.37508011,9.138189316,5.321936607,16.27796427,16.277964275452284
6.078202675,-12.92094326,8.748159409,4.567898273,16.25874418,16.258744182927874
6.080708665,-13.15065384,8.020143509,3.71336174,15.8446033,15.844603300069
6.083214707,-12.95444298,7.096214771,2.970988512,15.06654007,15.066540071850133
6.085720748,-12.17886925,6.267699718,2.528316259,13.92843491,13.928434910970314
6.088226738,-11.24507046,6.801598549,2.34137702,13.34898493,13.34898493601321
6.09073278,-9.870991707,8.053643227,1.683051586,12.85030385,12.850303854329782
6.093238821,-7.517351627,9.133403778,0.3975076675,11.83586298,11.835862976634425
6.095744811,-4.496113777,9.9643116,-1.31425786,11.01044134,11.010441339028857
6.098250853,-1.678265929,10.72792149,-2.157129526,11.07059546,11.070595458961863
6.100756894,0.2679961324,11.70000553,-1.683051586,11.82347724,11.823477236843189
6.103262884,1.278365493,12.94487095,-1.053440213,13.05042676,13.050426756555225
6.105768925,1.683051586,14.40299797,-1.161117196,14.54741236,14.547412357797798
6.108274967,1.821835399,15.99751472,-1.304686546,16.1536921,16.153692098742614
6.110780957,1.74047935,17.76431465,0.1698904037,17.85018224,17.850182242802184
6.113286998,1.323829174,19.77997017,3.931108475,20.21022903,20.210229030128286
6.11579304,0.5171487927,22.09741783,9.700801849,24.13853505,24.138535045461126
6.11829903,-0.5291129351,24.66641235,16.62712669,29.75186046,29.75186045751817
6.120805071,-1.697408557,27.21357155,22.50928307,35.35714208,35.357142088151505
6.123311113,-2.669492722,28.98785019,23.92433739,37.68017475,37.68017475518454
6.125817103,-3.382853031,29.07638359,19.62204361,35.24066363,35.240663625064
6.128323144,-3.754039526,27.4268322,11.35992527,29.92276457,29.922764568630882
6.130829186,-3.739682674,24.76930428,2.18105793,25.14479418,25.14479418709682
6.133335175,-4.493721008,21.78635025,-4.484149456,22.69242565,22.69242565388638
6.135841217,-6.119344711,19.02114487,-7.424031258,21.31587605,21.31587605465307
6.138347259,-8.298009872,16.7539463,-6.782455921,19.88852415,19.888524147844684
6.140853248,-10.49342442,15.05414486,-4.017250061,18.78503477,18.785034777096403
6.14335929,-12.4109726,13.77577877,-0.6487540603,18.55330707,18.553307075254516
6.145865332,-13.15783215,12.86830139,1.730908036,18.48560981,18.4856098135966
6.148371321,-12.3176527,12.24108219,2.62402916,17.56286396,17.562863953600587
6.150877363,-9.707980156,11.75025463,2.23130703,15.40428816,15.404288157563585
6.153383405,-6.322734833,11.27856922,1.292722464,12.99439228,12.99439228235369
6.155889446,-2.973381281,10.56281662,-0.09092725813,10.97371218,10.973712177573297
6.158395436,0.1268195957,9.502198219,-1.745265007,9.661977238,9.66197723800253
6.160901478,2.932703257,8.051250458,-3.294318676,9.180191603,9.18019160312605
6.163407467,5.420341492,6.294020653,-4.366901398,9.384275448,9.384275448330664
6.165913509,7.589435101,4.493721008,-4.809872627,10.04628928,10.046289282018277
6.16841955,9.444769859,2.882453918,-4.797908306,10.97871315,10.978713148254318
6.170925592,11.01296616,1.620838284,-4.646861553,12.06258109,12.062581095144386
6.173431582,12.40857983,0.8138588071,-4.632504463,13.27009107,13.270091075614063
6.175937623,13.53619766,0.5697908998,-4.951049328,14.42449993,14.4244999292306
6.178443613,14.39103317,0.8524430394,-5.748157978,15.51998115,15.519981152549986
6.180949655,15.05414486,1.486840129,-6.751348972,16.56558734,16.565587341739338
6.183455696,15.60239983,2.233700037,-7.771289825,17.57319669,17.5731966885546
6.185961686,16.0812645,3.054737091,-8.66650486,18.52152243,18.52152242939265
6.188467728,16.53350639,3.990929127,-9.262915611,19.36713594,19.367135938527806
6.190973769,16.98604965,5.020441055,-9.296415329,20.00385086,20.003850855979227
6.193479811,17.45773506,6.073881149,-8.539685249,20.36150215,20.36150214962833
6.1959858,17.94856262,7.031608582,-7.139285564,20.55635711,20.556357112554164
6.198491842,18.47767639,7.874181271,-5.415555954,20.8027763,20.802776299163423
6.200997884,19.06660843,8.515756607,-3.82821703,21.2299061,21.229906105336244
6.203503873,19.63640022,8.953942299,-2.903989315,21.7760063,21.77600629673567
6.206009915,20.07219315,9.270093918,-2.951845884,22.30562649,22.30562649248694
6.208515957,20.25165367,9.504590988,-3.636492252,22.66474801,22.66474800472424
6.211021946,20.0913353,9.703194618,-4.400400639,22.74153173,22.741531736352364
6.213527988,19.5454731,9.873384476,-4.924727917,22.44464713,22.444647129554532
6.21603403,18.59492302,10.06959629,-5.082654476,21.74859324,21.748593243833277
6.218540019,17.26870155,10.32802105,-4.754538536,20.6756308,20.67563079382403
6.221046061,15.69811249,10.65613651,-3.971786499,19.3845059,19.38450590193332
6.223552103,14.06291771,11.00818062,-2.906382322,18.09399771,18.093997714225825
6.226058092,12.40140152,11.31206894,-1.922333837,16.8953553,16.895355300923573
6.228564134,10.8116703,11.50110245,-1.415055513,15.84834232,15.848342321712064
6.231070175,9.289237022,11.52772236,-1.455733418,14.87607028,14.876070282316542
6.233576165,7.900502205,11.39581776,-1.898405671,13.99594733,13.995947327781217
6.236082207,6.653243542,11.18285656,-2.367697954,13.22603206,13.22603206075335
6.238588248,5.628517151,10.9049902,-2.729313374,12.57172096,12.571720967102811
6.24109429,4.888835907,10.67288589,-2.956631422,12.10590266,12.105902655815937
6.24360028,4.393222332,10.49342442,-3.110071182,11.79342619,11.793426188930116
6.246106321,3.974179268,10.35194874,-3.234498024,11.55071084,11.55071084553018
6.248612363,3.646063566,10.26819992,-3.36849618,11.40510744,11.405107436542423
6.251118353,3.375674486,10.1772728,-3.514458179,11.28377047,11.283770476795032
6.253624394,3.172284603,10.0839529,-3.792324781,11.23081578,11.230815773417174
6.256130436,3.049951553,9.9643116,-4.240081787,11.25024461,11.250244606140384
6.258636425,2.973381281,9.825528145,-4.766502857,11.31819549,11.318195485861583
6.261142467,2.856132984,9.722337723,-5.231009483,11.40371898,11.40371898257746
6.263648509,2.731706142,9.65055275,-5.456233978,11.4177877,11.417787703817881
6.266154498,2.607279301,9.631410599,-5.401198864,11.3461414,11.346141399102494
6.26866054,2.494517565,9.660123825,-5.132903576,11.2199514,11.219951395480274
6.271166582,2.429911375,9.729516029,-4.730610371,11.08812996,11.088129956450505
6.273672571,2.48733902,9.813264847,-4.271188259,10.98772367,10.98772367242642
6.276178613,2.659921408,9.906884193,-3.835395575,10.95133761,10.951337613596777
6.278684655,2.982952595,10.0145607,-3.425923824,10.99665341,10.99665341119072
6.281190644,3.423531055,10.09352398,-3.047558784,11.0854592,11.085459203899495
6.283696686,3.945465326,10.14377308,-2.616850615,11.1942278,11.194227801792621
6.286202728,4.462614059,10.15573788,-2.185843468,11.30627471,11.306274708914941
6.288708717,4.991727352,10.16530895,-1.785943031,11.46474773,11.464747730134864
6.291214759,5.484947681,10.10548782,-1.446162224,11.58865481,11.588654810701728
6.2937208,5.970989704,9.983454704,-1.180259824,11.69252321,11.692523214612073
6.29622679,6.389733791,9.851848602,-1.02711916,11.78739125,11.787391253598724
6.298732832,6.839883327,9.729516029,-0.9433703423,11.93052529,11.93052528970421
6.301238873,7.249355316,9.593125343,-0.8859425783,12.0567865,12.056786495421207
6.303744863,7.589435101,9.526125908,-0.8258228898,12.20772638,12.207726381791055
6.306250905,7.874181271,9.530911446,-0.7253243923,12.38414709,12.384147090297592
6.308756946,8.11824894,9.624231339,-0.6008976102,12.60527162,12.605271621680547
6.311262936,8.30279541,9.765408516,-0.4716851711,12.82661694,12.82661693531533
6.313768978,8.422436714,9.9643116,-0.3735794425,13.05237555,13.05237554865352
6.316275019,8.424829483,10.17009449,-0.3257229924,13.21040004,13.210400040155196
6.318781061,8.372187614,10.34955597,-0.2775674164,13.31479921,13.314799205801965
6.32128705,8.262117386,10.45753193,-0.3496512175,13.33209712,13.332097124642928
6.323793092,8.075178146,10.51256752,-0.4980062246,13.26539061,13.265390614374509
6.326299082,7.764111042,10.5293169,-0.7253243923,13.10244367,13.10244367006389
6.328805123,7.337889671,10.51735306,-0.9337990284,12.85812276,12.858122757148518
6.331311165,6.787241459,10.50778198,-1.07497561,12.55530571,12.555305704126685
6.333817207,6.119344711,10.52692413,-1.110867858,12.22687772,12.226877717911364
6.336323196,5.295615673,10.56760216,-1.055832982,11.86728882,11.867288824918644
6.338829238,4.378865242,10.63460159,-0.9242277741,11.53791181,11.537911802576932
6.34133528,3.366103172,10.73031425,-0.7492526174,11.27083289,11.270832886392304
6.343841269,2.300698996,10.77817059,-0.5386841893,11.03414508,11.03414508664528
6.346347311,1.225723386,10.74467087,-0.4310071766,10.82294401,10.822944013062923
6.348853353,0.2536391914,10.65613651,-0.4429712892,10.66835516,10.668355155422251
6.351359342,-0.5315057039,10.46949673,-0.6128616929,10.50087899,10.500878989274335
6.353865384,-1.120439172,10.19402313,-0.8668000102,10.2919791,10.29197909883273
6.356371425,-1.525125384,9.870991707,-1.063011408,10.04452478,10.044524775723442
6.358877415,-1.747657895,9.57158947,-1.134796143,9.795784572,9.795784572270788
6.361383457,-1.802692771,9.289237022,-1.225723386,9.54159439,9.541594389644656
6.363889498,-1.6926229,9.044869423,-1.285543919,9.291246328,9.29124632804462
6.366395488,-1.510768414,8.84387207,-1.3310076,9.07017506,9.070175060191723
6.36890153,-1.244866014,8.702695847,-1.350150228,8.894352817,8.894352817174038
6.371407571,-0.9218349457,8.618648529,-1.345364571,8.77159552,8.771595519770027
6.373913613,-0.5961119533,8.554041862,-1.26640141,8.667799846,8.667799845922007
6.376419603,-0.2608176768,8.556434631,-1.137188911,8.635612201,8.635612200325395
6.378925644,0.06699903309,8.5588274,-1.043868899,8.622509937,8.62250993688759
6.381431686,0.3879363835,8.539685249,-0.9864411354,8.60521847,8.605218469233684
6.383937675,0.7085745931,8.525327682,-0.9481559992,8.607106938,8.60710693777423
6.386443717,1.01036942,8.489435196,-0.902692318,8.59687209,8.596872090064554
6.388949759,1.307079315,8.429615021,-0.8979067206,8.577476448,8.577476448050927
6.391455748,1.553839207,8.400900841,-0.9098708034,8.591706239,8.591706239182335
6.39396179,1.809871197,8.393722534,-0.8835497499,8.63196802,8.63196801940658
6.396467832,1.994417667,8.415258408,-0.8668000102,8.691698232,8.691698232309905
6.398973821,2.159522533,8.463114738,-0.7923234105,8.77015536,8.770155359280354
6.401479863,2.279163599,8.518149376,-0.6487540603,8.841625265,8.841625265391627
6.403985905,2.365305185,8.642576218,-0.4740779996,8.972933871,8.972933870916012
6.406491894,2.386840582,8.760123253,-0.3161516786,9.084972166,9.084972165918561
6.408997936,2.401197433,8.863015175,-0.2129612118,9.18499535,9.184995350148926
6.411503978,2.362912416,8.949156761,-0.1316052526,9.256785715,9.256785714336855
6.414009967,2.252842426,9.037691116,-0.03110669367,9.314296932,9.314296931653079
6.416516009,2.118844509,9.107083321,0.06460621208,9.350542371,9.350542370985501
6.41902205,1.965703845,9.126225471,0.1938186288,9.337534397,9.337534396972622
6.42152804,1.809871197,9.119047165,0.3424727321,9.303222158,9.30322215791157
6.424034082,1.685444474,9.092725754,0.4645066857,9.259273793,9.259273792984631
6.426540123,1.541875124,9.073583603,0.5578267574,9.220546024,9.22054602449941
6.429046113,1.400399446,9.023334503,0.555433929,9.148234311,9.148234311104614
6.431552155,1.297508121,8.968298912,0.5291129351,9.077107094,9.077107094065347
6.434058196,1.132403374,8.913264275,0.5075774789,8.999236208,8.99923620839704
6.436564238,0.9888339639,8.918049812,0.5243272781,8.988010022,8.988010021803223
6.439070228,0.8401798606,8.920442581,0.5626124144,8.977568199,8.977568199012067
6.441576269,0.632004261,8.944371223,0.6296114326,8.988749442,8.988749441207787
6.444082311,0.4070789516,8.97308445,0.7229315639,9.011358824,9.011358824603006
6.4465883,0.2009970993,8.98026371,0.8691928387,9.024468534,9.024468534263795
6.449094342,0.04067798331,8.970691681,1.003190875,9.02670238,9.026702380469406
6.451600384,-0.1052841991,8.95154953,1.091725349,9.018491448,9.018491447480145
6.454106373,-0.2826521695,8.910871506,1.189831018,8.994399429,8.99439942946502
6.456612415,-0.5171487927,8.867800713,1.295115232,8.976784269,8.97678426962756
6.459118457,-0.7396813035,8.812766075,1.297508121,8.938428366,8.9384283656289
6.461624446,-0.9409775138,8.743373871,1.220937729,8.878215714,8.878215714188206
6.464130488,-1.096511006,8.692825317,1.113260746,8.832151373,8.832151372499215
6.46663653,-1.213759303,8.673683167,1.067797065,8.823048333,8.823048333718955
6.469142571,-1.247258782,8.685647011,1.022333503,8.834097818,8.83409781813206
6.471648561,-1.192223907,8.705088615,1.031904817,8.846739128,8.846739127541444
6.474154603,-1.079761267,8.760123253,1.070189953,8.891060136,8.891060135718737
6.476660644,-0.9194421172,8.805587769,1.115653515,8.923476482,8.923476482289594
6.479166634,-0.7085745931,8.865407944,1.108475089,8.96249145,8.962491449951775
6.481672675,-0.4956133962,8.946763992,1.022333503,9.018613217,9.018613217030483
6.484178717,-0.2297109663,9.004191399,0.8907282352,9.05105666,9.051056660238437
6.486684707,0.03349951655,9.090332985,0.7612167001,9.122210634,9.122210634506267
6.489190748,0.3017947674,9.169296265,0.6870391965,9.19995092,9.199950920222365
6.49169679,0.5291129351,9.241081238,0.6655037999,9.280109819,9.280109819020844
6.49420278,0.71336025,9.334700584,0.7348956466,9.390718261,9.390718260633829
6.496708821,0.8715856671,9.435198784,0.7875377536,9.508041511,9.50804151137523
6.499214863,0.9768698215,9.514162064,0.8644071817,9.60316376,9.603163760135965
6.501720853,0.97926265,9.595518112,0.8811569214,9.685523254,9.685523253574699
6.504226894,0.9385846853,9.667302132,0.9002995491,9.754394445,9.754394445631215
6.506732936,0.8066803217,9.739087105,0.9074779749,9.814482516,9.81448251591106
6.509238978,0.6056832075,9.80608654,0.8835497499,9.864423224,9.864423223806094
6.511744967,0.2994019389,9.856635094,0.8955138922,9.901759542,9.90175954204164
6.514251009,-0.009571290575,9.916455269,0.8452646136,9.952419252,9.952419252557917
6.51675705,-0.3281157911,9.9643116,0.7277171612,9.996236186,9.996236186733922
6.51926304,-0.6343970895,9.997811317,0.5841478109,10.03493495,10.034934950585312
6.521769082,-1.108475089,10.06720352,0.5434698462,10.14261619,10.142616191583047
6.524275123,-1.503589988,10.16770172,0.4262215197,10.28710873,10.28710872416347
6.526781113,-1.919941068,10.34955597,0.4621138871,10.53627219,10.536272193019991
6.529287155,-2.279163599,10.54845905,0.5410770178,10.80543102,10.805431013139868
6.531793196,-2.614457846,10.76381397,0.6487540603,11.09576329,11.095763283345308
6.534299186,-2.930310488,10.99621677,0.7636095285,11.40555139,11.405551381714433
6.536805228,-3.217748165,11.24028397,0.8763712645,11.72458586,11.724585859331713
6.539311269,-3.392424345,11.46042442,0.9409775138,11.98896616,11.988966156619105
6.541817311,-3.507279873,11.64497089,1.007976532,12.2033756,12.203375591432112
6.5443233,-3.526422262,11.79332542,1.10608232,12.35886713,12.358867121648489
6.546829342,-3.4809587,11.89861012,1.287936807,12.46405943,12.464059430125383
6.549335332,-3.370888948,11.98235893,1.544267893,12.5429096,12.54290959675824
6.551841373,-3.198605776,12.00389385,1.867298961,12.56229883,12.562298829516836
6.554347415,-3.004487991,12.03739357,2.204986095,12.60110137,12.601101369574167
6.556853457,-2.825026274,12.05892849,2.513660192,12.63791982,12.637919818410365
6.559359446,-2.65513587,12.06371403,2.827419043,12.67190755,12.671907556895233
6.561865488,-2.525923491,12.05892849,3.191427231,12.72726418,12.727264182851224
6.56437153,-2.492124796,12.01346493,3.555136204,12.77391948,12.77391948667947
6.566877519,-2.542673111,11.91057396,3.746861219,12.74228895,12.742288946671971
6.569383561,-2.669492722,11.77896881,3.715754509,12.63634161,12.636341606292449
6.571889603,-2.875275612,11.61386395,3.44985199,12.45192854,12.451928543281099
6.574395592,-3.141177893,11.45803165,3.042773008,12.2642552,12.264255192472433
6.576901634,-3.442673683,11.34317589,2.552244425,12.12574092,12.125740924332897
6.579407675,-3.727718592,11.3072834,2.114058733,12.09213745,12.092137450245577
6.581913665,-4.029214382,11.35274696,1.778764486,12.17716861,12.177168602370573
6.584419707,-4.359723091,11.46760273,1.572981834,12.36880631,12.36880631481454
6.586925748,-4.699503899,11.6832552,1.470090389,12.67852336,12.678523365000887
6.58943179,-5.001298428,11.95603752,1.46769762,13.04277407,13.042774070316357
6.59193778,-5.209474087,12.25543976,1.546660781,13.40621436,13.406214362958577
6.594443821,-5.401198864,12.60718441,1.726122379,13.82365894,13.823658936168332
6.596949863,-5.532804012,12.91137218,1.946262121,14.18109263,14.181092625369903
6.599455853,-5.633302689,13.19402409,2.123630047,14.5026265,14.502626501772571
6.601961894,-5.676373482,13.440485,2.154736757,14.74824544,14.748245435791496
6.604467936,-5.693123341,13.63908863,2.02073884,14.91709682,14.917096818493832
6.606973925,-5.709873199,13.85474205,1.616052628,15.07209857,15.072098570443414
6.609479967,-5.731408596,14.13709545,1.019940615,15.28877991,15.288779909294266
6.611986009,-5.788836002,14.51546001,0.4764707983,15.63445637,15.634456369877181
6.61449205,-5.911169052,14.94407463,0.2201396823,16.07220419,16.072204191959962
6.61699804,-6.090631008,15.43729496,0.36161533,16.59929599,16.599295991232385
6.619504082,-6.296413898,16.01665688,0.9601200819,17.23658771,17.23658771794019
6.622010123,-6.581458569,16.59841156,1.963011861,17.96319233,17.963192332573623
6.624516113,-6.94756031,17.10808372,3.277568817,18.7536018,18.753601792236793
6.627022155,-7.385746002,17.50559044,4.785944462,19.59337146,19.593371457011344
6.629528196,-7.862216949,17.80499268,6.274878502,20.45009339,20.450093395944634
6.632034186,-8.321938515,17.99881172,7.622934818,21.24431734,21.244317339442244
6.634540228,-8.788837433,18.08973885,8.999405861,22.03342054,22.033420545523622
6.637046269,-9.183652878,18.12323952,10.32323551,22.78948183,22.789481834342183
6.639552259,-9.514162064,18.07777596,11.41496086,23.40142292,23.40142292415875
6.6420583,-9.825528145,17.93420601,11.8028965,23.61112268,23.61112268247784
6.644564342,-10.09830952,17.74278069,11.2067852,23.28892776,23.288927761794845
6.647070384,-10.34955597,17.5749836,10.15813065,22.78554312,22.785543127582038
6.649576373,-10.50778198,17.46730614,9.047262192,22.30186582,22.301865821013433
6.652082415,-10.42642593,17.55584145,7.256533623,21.66968405,21.669684051989403
6.654588457,-10.10070229,17.9078846,4.783551693,21.10921325,21.109213258616048
6.657094446,-9.62901783,18.44896126,2.97577405,21.02230689,21.0223068938709
6.659600488,-9.095118523,18.99721718,2.248056889,21.18181298,21.181812984437503
6.66210653,-8.656932831,19.44976044,1.364507079,21.33301541,21.333015417012096
6.664612571,-8.192725182,19.82064819,-0.7325028181,21.45962258,21.45962257259087
6.667118561,-7.735397339,20.17987061,-3.62452817,21.91348339,21.91348338999698
6.669624603,-7.268497944,20.47179413,-5.796014786,22.48375424,22.48375423861783
6.672130644,-6.902096748,20.52712822,-4.783551693,22.17846476,22.178464763790025
6.674636634,-6.524031162,20.29711723,-1.74047935,21.39077416,21.39077415193023
6.677142675,-6.116951942,19.90918159,-0.1028913707,20.82794276,20.82794275194977
6.679648717,-5.633302689,19.53829384,-0.9170492887,20.35485212,20.3548521184012
6.682154707,-4.972584724,19.18385696,-2.674278498,19.99746815,19.997468144341767
6.684660748,-4.014857292,18.92064667,-3.35413909,19.63059343,19.6305934327308
6.68716679,-2.621636391,18.68824387,-1.695015788,18.94720335,18.947203351227785
6.68967278,-0.7971090674,18.51117516,0.4501497746,18.53379679,18.53379679097364
6.692178821,1.118046403,18.27667809,0.7731808424,18.32716012,18.327160128612444
6.694684863,2.841775894,17.91027832,-0.3927220106,18.13857741,18.1385774058825
6.697190905,4.326223373,17.37637901,-1.936690807,18.01126113,18.011261128920943
6.699696894,5.764907837,16.69173241,-3.32063961,17.96871561,17.96871560895907
6.702202936,7.409674644,15.90868092,-4.179962158,18.04055128,18.040551282780154
6.704708978,9.111868858,15.11396503,-4.740181446,18.27368089,18.273680886850787
6.707215019,10.83320522,14.30220032,-4.951049328,18.6124732,18.612473204287834
6.709721009,12.58325577,13.45962715,-5.003691196,19.0928472,19.092847204520947
6.71222705,14.3383913,12.65055466,-5.101797104,19.79025851,19.790258511902923
6.714733092,15.94935894,11.89382362,-5.425127029,20.62224756,20.622247554071652
6.717239082,17.39791489,11.22353458,-6.069095612,21.57519623,21.575196234002995
6.719745123,18.66431618,10.62024403,-7.043572426,22.59996005,22.59996004961221
6.722251165,19.81107521,10.06720352,-7.914859295,23.5896648,23.58966479942063
6.724757155,20.82383728,9.506983757,-8.137690544,24.29479258,24.294792582149917
6.727263196,21.74328041,8.913264275,-7.376174927,24.62974786,24.629747858587276
6.729769238,22.6145668,8.276473999,-6.018846035,24.82227147,24.82227147141898
6.73227528,23.28007126,7.562815189,-4.929513931,24.96914093,24.969140935353987
6.734781269,23.8884449,6.708278179,-4.766502857,25.26615019,25.2661501886016
6.737287311,24.46541595,5.652445316,-5.283651352,25.65976788,25.659767872418023
6.739793353,24.88176537,4.443471432,-5.803193092,25.93306261,25.933062610454783
6.742299342,25.08306313,3.220141172,-5.817550182,25.94943651,25.949436511632832
6.744805384,24.98256302,2.274377823,-5.365306377,25.65322128,25.653221280164846
6.747311425,24.45105743,1.943869352,-4.658825874,24.96672778,24.966727779728263
6.749817467,23.47897339,2.267199516,-3.864109516,23.9025883,23.902588300126002
6.752323457,22.20300102,2.961417198,-3.090928555,22.6118793,22.61187929931622
6.754829498,20.8645153,3.768396616,-2.557030201,21.35573027,21.355730266329935
6.75733554,19.61007881,4.587040901,-2.336591244,20.27451094,20.27451093869826
6.75984153,18.5925312,5.329114914,-2.338984251,19.48210794,19.48210793307584
6.762347571,17.82174301,5.978168488,-2.549851656,18.96983832,18.96983831910557
6.764853613,17.26870155,6.471388817,-2.832204819,18.65766091,18.6576609086062
6.767359603,16.85683823,6.782455921,-3.090928555,18.43118397,18.431183976207603
6.769865644,16.48804283,6.937989235,-3.351746321,18.19960039,18.19960039092143
6.772371686,16.12911987,6.892525673,-3.55992198,17.89772227,17.89772226953698
6.774877728,15.76511192,6.70588541,-3.758825302,17.53956729,17.539567287511183
6.777383717,15.38914013,6.413661957,-3.998107433,17.14484053,17.14484052667902
6.779889759,15.00150204,6.033203125,-4.33340168,16.73986181,16.739861813165028
6.7823958,14.63749409,5.58066082,-4.685146809,16.35085958,16.350859581213182
6.78490179,14.20888042,5.106582642,-5.020441055,15.91145177,15.911451770852482
6.787407832,13.82124233,4.60379076,-5.31715107,15.50786009,15.507860084732755
6.789913873,13.43569946,4.110570431,-5.496912003,15.08744017,15.087440167781322
6.792419915,13.02144146,3.617349625,-5.61655283,14.63519121,14.635191208107791
6.794925905,12.62393379,3.141177893,-5.673980713,14.19241911,14.192419103918532
6.797431946,12.2099762,2.67188549,-5.664409637,13.7225372,13.72253720752753
6.799937988,11.8028965,2.209771633,-5.633302689,13.26369314,13.263693137494487
6.802443978,11.42931747,1.793121457,-5.585446358,12.84685929,12.846859281851595
6.804950019,11.09192944,1.388435364,-5.484947681,12.45163854,12.451638547807747
6.807456061,10.78295612,1.029511929,-5.370092392,12.09007568,12.090075673725746
6.80996205,10.54367352,0.7085745931,-5.288437366,11.81688195,11.816881950177933
6.812468092,10.37587738,0.4070789516,-5.199902534,11.61307587,11.613075864762576
6.814974134,10.26580715,0.1603191197,-5.128118038,11.47650179,11.476501787251788
6.817480175,10.22034359,-0.02871387079,-5.120939732,11.4315472,11.431547197243516
6.819986165,10.21795082,-0.1890329868,-5.180759907,11.45785869,11.457858684938293
6.822492207,10.26580715,-0.3137588799,-5.262115955,11.54015188,11.540151879397984
6.824998248,10.36391354,-0.4022932947,-5.326722145,11.65961031,11.659610309508174
6.827504238,10.46471119,-0.4573282301,-5.37487793,11.77321715,11.773217154310824
6.83001028,10.5723877,-0.4908277392,-5.343770981,11.856314,11.856314007568168
6.832516321,10.65613651,-0.5003990531,-5.26690197,11.8972224,11.897222402463873
6.835022363,10.71356392,-0.5075774789,-5.183153152,11.91231142,11.912311419791703
6.837528353,10.7925272,-0.5123631358,-5.065904617,11.93333771,11.933337711395273
6.840034394,10.85234833,-0.5147559643,-4.915156841,11.92464694,11.924646944461934
6.842540436,10.89302635,-0.5147559643,-4.721039295,11.88323226,11.883232253453217
6.845046478,10.92891788,-0.4836492836,-4.510470867,11.83298399,11.83298398965224
6.847552467,10.94596672,-0.4764707983,-4.295116425,11.76814501,11.768145009358314
6.850058509,10.95793152,-0.4884349108,-4.117748737,11.71625736,11.716257359761386
6.85256455,10.92652512,-0.5123631358,-3.981357813,11.64056172,11.640561722531006
6.85507054,10.91456127,-0.5362913609,-3.871287823,11.59319307,11.593193069593385
6.857576582,10.87627602,-0.5889334679,-3.837788343,11.54854285,11.54854285433909
6.860082623,10.84038353,-0.6463612318,-3.844966888,11.52021998,11.52021997573335
6.862588613,10.804492,-0.7253243923,-3.878466368,11.50241906,11.502419059477727
6.865094655,10.7614212,-0.7995018363,-3.933501244,11.48563544,11.485635440262156
6.867600696,10.68963623,-0.8715856671,-3.976572037,11.43857987,11.438579871219726
6.870106738,10.64895821,-0.9457631707,-4.002892971,11.41568793,11.415687936811349
6.872612728,10.61545849,-1.039083242,-4.081856251,11.42056055,11.420560555005437
6.875118769,10.60349464,-1.1395818,-4.17517662,11.45272217,11.452722168445133
6.877624811,10.59392357,-1.247258782,-4.252045631,11.48332544,11.483325438407805
6.8801308,10.56760216,-1.386042476,-4.290330887,11.489224,11.489224006749067
6.882636842,10.50778198,-1.505982757,-4.275974274,11.44401251,11.444012504165832
6.885142884,10.4216404,-1.635195136,-4.271188259,11.38101493,11.381014932927979
6.887648925,10.32323551,-1.75722909,-4.244867325,11.29937804,11.299378039366584
6.890154915,10.18923664,-1.905584097,-4.247260094,11.20227711,11.202277106139746
6.892660957,10.05045319,-2.082952023,-4.244867325,11.10716872,11.10716872390771
6.895166998,9.894919395,-2.248056889,-4.194318771,10.97977685,10.979776844840266
6.897672988,9.731908798,-2.429911375,-4.079463482,10.82850592,10.82850591928156
6.90017903,9.590732574,-2.580958366,-4.002892971,10.70825147,10.708251469324544
6.902685071,9.387342453,-2.712563515,-3.950251102,10.53967186,10.539671860245813
6.905191113,9.17886734,-2.803490877,-3.962215185,10.38317466,10.383174654939861
6.907697103,8.934800148,-2.853740215,-3.947858334,10.17644694,10.176446940103522
6.910203144,8.654540062,-2.88006115,-3.911965847,9.924680987,9.92468098734648
6.912709186,8.415258408,-2.868097067,-3.892823458,9.705494801,9.70549480110642
6.915215175,8.190332413,-2.829811811,-3.854538202,9.484031035,9.484031034944524
6.917721217,7.953144073,-2.769991398,-3.775574923,9.229318447,9.229318446671751
6.920227259,7.728219032,-2.662314177,-3.629313707,8.94344476,8.943444759567775
6.9227333,7.560422421,-2.580958366,-3.46420908,8.70758737,8.707587370847296
6.92523929,7.476673603,-2.484946251,-3.35413909,8.563051738,8.563051738207704
6.927745332,7.409674644,-2.434697151,-3.236890793,8.444435479,8.444435478635159
6.930251373,7.385746002,-2.374876499,-3.148356438,8.372659712,8.372659711958772
6.932757415,7.457530975,-2.350948334,-3.078665495,8.403565169,8.403565168565388
6.935263405,7.514958382,-2.283949137,-2.973381281,8.398334322,8.398334322101991
6.937769446,7.558029652,-2.233700037,-2.865704298,8.386029406,8.386029406064631
6.940275488,7.651648521,-2.164308071,-2.791526794,8.427607986,8.42760798546878
6.942781478,7.756932735,-2.082952023,-2.755634308,8.491302316,8.491302316185722
6.945287519,7.902894974,-1.999203324,-2.705385208,8.58904372,8.589043720021007
6.947793561,8.075178146,-1.896012783,-2.679064035,8.716693793,8.716693792176361
6.95029955,8.257331848,-1.80508554,-2.679064035,8.866749526,8.866749526085796
6.952805592,8.491828918,-1.738086581,-2.724527597,9.085986681,9.085986680732473
6.955311634,8.726624489,-1.625623941,-2.75084877,9.293212422,9.293212422245464
6.957817675,8.925228119,-1.505982757,-2.738884687,9.456699761,9.456699760976484
6.960323665,9.102297783,-1.386042476,-2.612065077,9.570570654,9.570570653945664
6.962829707,9.296415329,-1.321436286,-2.39162612,9.689654654,9.689654654583409
6.965335748,9.461520195,-1.24965167,-2.121237278,9.776586382,9.776586382081605
6.967841738,9.523733139,-1.185045362,-1.807478428,9.765900045,9.765900044571922
6.97034778,9.55005455,-1.096511006,-1.575374603,9.741030923,9.74103092254779
6.972853821,9.545269012,-1.019940615,-1.477268934,9.712608449,9.71260844845171
6.975359863,9.688838005,-0.8353942037,-1.31425786,9.813192095,9.813192094587759
6.977865853,9.978668213,-0.5865406394,-1.149153113,10.06172958,10.061729578155138
6.980371894,10.32562828,-0.3305086195,-0.97926265,10.37722461,10.377224612678699
6.982877936,10.69681454,-0.04546362907,-0.8162516356,10.7280089,10.728008900879198
6.985383978,10.99382401,0.2464607358,-0.7013961077,11.01893215,11.018932151394722
6.987889967,11.27139091,0.4764707983,-0.6056832075,11.29770462,11.297704617111863
6.990396009,11.56361485,0.7109674215,-0.5243272781,11.59730926,11.597309264141172
6.99290205,11.77657604,0.9481559992,-0.4118646085,11.82186007,11.821860068553336
6.99540804,12.04457188,1.223330617,-0.5195416212,12.11768018,12.11768018504926
6.997914082,12.13579845,1.546660781,-0.6583253145,12.25165931,12.251659308445426
7.000420123,11.99193001,1.919941068,-0.9290133715,12.18013238,12.180132384902777
7.002926165,11.84836006,2.336591244,-1.41984117,12.15973864,12.159738636211207
7.005432155,11.61386395,2.813062191,-1.943869352,12.10676599,12.106765992501392
7.007938196,11.16132164,3.291925669,-2.413161755,11.88424272,11.884242719565606
7.010444238,10.35673428,3.866502285,-2.54506588,11.34412381,11.344123818082096
7.012950228,9.597910881,4.500899315,-2.48733902,10.88874847,10.8887484737136
7.015456269,8.743373871,5.204688549,-2.164308071,10.40286494,10.40286494031202
7.017962311,7.780860901,5.985346794,-1.663909078,9.956644315,9.956644315481368
7.020468353,6.588637352,6.677171707,-1.070189953,9.441401946,9.441401945496919
7.022974342,5.365306377,7.385746002,-0.4956133962,9.142285774,9.142285773461074
7.025480384,3.876073599,8.094321251,0.06939185411,8.97478681,8.974786810207352
7.027986425,2.410768747,8.767302513,0.4310071766,9.102920767,9.102920767108147
7.030492467,1.053440213,9.406484604,0.6487540603,9.487495492,9.487495492405266
7.032998457,-0.304187566,9.93559742,0.8066803217,9.97293133,9.972931329806581
7.035504498,-1.752443433,10.31844902,1.118046403,10.52575299,10.525752986055915
7.03801054,-3.148356438,10.56999493,1.706979871,11.16022945,11.160229449295427
7.04051653,-4.443471432,10.68006516,2.796312332,11.90073917,11.90073917229267
7.043022571,-5.796014786,10.63460159,4.41236496,12.89020958,12.890209576178231
7.045528613,-7.191927433,10.34955597,6.351448536,14.11304459,14.113044585884266
7.048034603,-8.546863556,9.894919395,8.470293045,15.57896565,15.578965650729304
7.050540644,-9.774979591,9.308379173,10.4168539,17.05013179,17.050131788544974
7.053046686,-10.80688477,8.582756042,11.86750317,18.20137607,18.201376079805218
7.055552728,-11.6401844,7.744968891,12.55932808,18.7940192,18.794019203183698
7.058058717,-12.10229874,6.86381197,12.38465214,18.62678604,18.626786040015798
7.060564759,-12.23868942,5.99491787,11.4197464,17.78019029,17.780190292220674
7.0630708,-12.1477623,5.175974369,10.05045319,16.59428964,16.594289647051106
7.06557679,-11.87468147,4.448257446,8.767302513,15.41624623,15.41624622514547
7.068082832,-11.43171024,3.888037682,7.725826263,14.33489545,14.334895446916706
7.070588873,-11.08475113,3.550350666,6.957131863,13.5601763,13.560176297702505
7.073094915,-10.73988533,3.473780155,6.128916264,12.84429445,12.844294454657474
7.075600905,-10.26102161,3.813860178,4.919942379,12.00166351,12.00166350765182
7.078106946,-9.542876244,4.496113777,3.12921381,11.00334064,11.003340636948558
7.080612988,-8.999405861,5.350949764,1.577767372,10.58826327,10.588263271566333
7.08311903,-8.77448082,6.320342064,0.9601200819,10.85633769,10.856337689947901
7.085625019,-8.894122124,7.345067978,1.402792215,11.61995086,11.619950858610887
7.088131061,-9.451948166,8.446364403,2.724527597,12.96547131,12.965471313756044
7.090637103,-10.24905777,9.518947601,4.264009953,14.62310943,14.623109432766483
7.093143144,-11.48435211,10.4096756,5.585446358,16.47570637,16.475706373378724
7.095649134,-12.63619709,11.05603695,6.262914181,17.92019877,17.920198770539926
7.098155175,-13.69412422,11.43649578,6.396912098,18.95370566,18.953705660590153
7.100661217,-14.36949825,11.43410301,5.956633091,19.30550879,19.305508783268063
7.103167207,-14.771492,10.98903847,5.211866856,19.13424936,19.134249358829713
7.105673248,-14.58245945,10.21077251,4.182354927,18.28660963,18.286609625550252
7.10817929,-13.7853508,9.226723671,2.999702215,16.85723998,16.857239980457308
7.110685332,-12.54736328,8.211868286,1.831406593,15.1071227,15.107122695463515
7.113191321,-11.05842972,7.256533623,0.7636095285,13.24874513,13.248745133254122
7.115697363,-9.466305733,6.942774773,-0.1531406492,11.7403798,11.740379799549556
7.118203405,-7.780860901,7.507780075,-1.197009563,10.87848289,10.87848288637671
7.120709394,-6.061916828,8.221439362,-2.315055847,10.47369965,10.473699651382095
7.123215436,-4.299902439,9.09990406,-3.46420908,10.64416081,10.644160814083799
7.125721478,-2.566601276,10.23709393,-3.77796793,11.2097536,11.20975360664614
7.128227519,-0.794716239,11.63779163,-2.741277456,11.98266957,11.982669569616037
7.130733509,0.9936196208,13.2203455,-1.280758262,13.31935271,13.319352717601943
7.13323955,2.635993242,14.87946892,-0.1004985496,15.11149085,15.111490848741145
7.135745592,3.928715706,16.58884048,0.8620143533,17.06949046,17.06949045269814
7.138251634,4.706682205,18.33889198,2.238485575,19.06511564,19.065115633073276
7.140757623,4.91754961,20.20619011,4.80508709,21.34388144,21.34388143873456
7.143263665,4.546362877,22.20300102,8.810373306,24.31594842,24.315948418570105
7.145769707,3.663112402,24.07508659,13.14108276,27.67157826,27.67157825081275
7.148275696,2.219342947,25.41566467,15.83928967,30.02939545,30.02939544820131
7.150781738,0.3544368446,25.60499763,15.39392567,29.87832788,29.87832787561246
7.15328778,-1.946262121,24.33351135,12.03021526,27.21458782,27.214587817311415
7.155793821,-4.043570995,21.98256302,6.949953556,23.40695191,23.40695191071306
7.158299811,-5.621338367,19.22932053,2.281556368,20.16362349,20.1636234973317
7.160805853,-7.218248844,16.56012726,-0.2632105052,18.06682626,18.066826257296828
7.163311894,-9.131011009,14.35035515,-0.6176473498,17.0202686,17.020268600299048
7.165817884,-11.55882931,12.75583839,1.005583763,17.24323481,17.243234811192536
7.168323925,-13.94327641,11.78614712,3.691826344,18.62680334,18.626803341802887
7.170829967,-15.6119709,11.45803165,5.882156372,20.23906837,20.239068364416102
7.173336009,-15.97568035,11.74068356,6.50010252,20.86426001,20.864260012565524
7.17584205,-15.18575001,12.30090332,5.721837044,20.36316883,20.363168835235165
7.17834804,-13.46680546,12.76540947,4.09860611,19.00287084,19.002870843090548
7.180854082,-10.74467087,12.92333603,1.996810555,16.92476938,16.924769382224447
7.183360123,-7.14885664,12.66969681,-0.02632104978,14.54744174,14.54744174465936
7.185866113,-3.49531579,12.01825047,-1.525125384,12.60878996,12.608789960515628
7.188372155,-0.1316052526,11.02971554,-2.621636391,11.33776531,11.337765309021213
7.190878196,2.899203777,9.823135376,-3.521636724,10.8305723,10.830572301204548
7.193384186,5.592624664,8.467900276,-4.261617184,11.00655108,11.006551082860884
7.195890228,7.936394691,7.139285564,-4.826622486,11.71546174,11.715461735588256
7.198396269,9.99302578,5.911169052,-5.242973328,12.73935843,12.739358426513737
7.200902311,11.65454197,4.80508709,-5.492125988,13.75066029,13.750660287456785
7.2034083,13.04776287,3.911965847,-5.621338367,14.7359098,14.735909803475023
7.205914342,14.14666653,3.241676569,-5.652445316,15.57519755,15.575197556994139
7.208420384,15.01346684,2.88006115,-5.573482037,16.27152853,16.271528533001458
7.210926425,15.65982819,2.88006115,-5.599802971,16.87847044,16.878470442610563
7.213432415,16.05972862,3.100499868,-5.956633091,17.40716693,17.407166930902665
7.215938457,16.24397469,3.445066452,-6.725028038,17.91538999,17.915389995753447
7.218444498,16.30858231,3.789932013,-7.742575645,18.44670483,18.446704834299112
7.22095054,16.26551056,4.129712582,-8.68803978,18.89717955,18.897179551622592
7.22345653,16.15065575,4.512863636,-9.131011009,19.09410855,19.094108552080097
7.225962571,16.04297829,4.972584724,-8.92283535,19.01895743,19.018957435516256
7.228468613,15.89671707,5.542375565,-8.036892891,18.65516518,18.65516517880624
7.230974603,15.79143333,6.212665081,-6.669992924,18.23335898,18.2333589782772
7.233480644,15.70768452,6.949953556,-5.288437366,17.97222237,17.972222377449867
7.235986686,15.57129383,7.704290867,-4.278367043,17.89205728,17.892057284118117
7.238492728,15.32692623,8.393722534,-3.744468451,17.87149377,17.871493771315695
7.240998717,14.91057491,8.999405861,-3.600599766,17.7842309,17.7842308991039
7.243504759,14.36231995,9.454340935,-3.602992773,17.56821999,17.568219994742634
7.2460108,13.69173145,9.751050949,-3.504886866,17.17063589,17.17063588375143
7.248516842,12.86351585,10.00977516,-3.318246841,16.63359255,16.633592542645765
7.251022832,11.95603752,10.2275219,-3.0981071,16.0358132,16.035813200386745
7.253528873,11.01296616,10.47428226,-2.844168901,15.46238369,15.46238368560525
7.256034915,10.11266708,10.70638561,-2.597707987,14.95462521,14.954625207160973
7.258540905,9.253045082,10.92891788,-2.42273283,14.52341984,14.523419834283795
7.261046946,8.455936432,11.11825085,-2.252842426,14.14898095,14.148980949239283
7.263552988,7.71864748,11.24267673,-1.992024899,13.78199776,13.781997757002785
7.26605903,6.981060028,11.31446171,-1.656730533,13.39764901,13.397649008709324
7.268565071,6.31316328,11.35274696,-1.340578914,13.05902163,13.059021631132671
7.271071061,5.707480431,11.31924725,-1.165902853,12.73027967,12.730279676405937
7.273577103,5.149653435,11.23071289,-1.173081279,12.41063907,12.410639073204882
7.276083144,4.642076015,11.09671497,-1.256830096,12.09403055,12.09403054174545
7.278589134,4.191926003,10.96032429,-1.366899967,11.81394801,11.813948013952668
7.281095175,3.909573078,10.82602692,-1.443769336,11.60052112,11.60052112710291
7.283601217,3.79471755,10.68485069,-1.525125384,11.4408008,11.440800801901613
7.286107259,3.804288864,10.59631634,-1.66151619,11.38047318,11.380473179430524
7.288613248,3.847359657,10.52692413,-1.881655931,11.36481135,11.364811349589349
7.29111929,3.950251102,10.45753193,-2.204986095,11.39413979,11.394139788284374
7.293625332,4.024428368,10.41446114,-2.482553482,11.43766131,11.437661313254715
7.296131373,4.010071754,10.36869907,-2.664707184,11.43202783,11.432027827682571
7.298637363,3.856930971,10.26102161,-2.786741018,11.31063246,11.31063245346385
7.301143405,3.612564087,10.05045319,-2.858525753,11.0559214,11.055921403828247
7.303649446,3.306282759,9.770194054,-2.918346405,10.71937234,10.719372335862488
7.306155488,2.954238653,9.437591553,-3.011666298,10.33759132,10.337591316677461
7.308661478,2.602493763,9.107083321,-3.126821041,9.974414781,9.974414781055106
7.311167519,2.281556368,8.793622971,-3.191427231,9.629045237,9.629045237573067
7.313673561,2.02073884,8.582756042,-3.136392355,9.358634716,9.35863471562356
7.31617955,1.824228168,8.475078583,-2.987738132,9.169588025,9.169588024680104
7.318685592,1.730908036,8.472685814,-2.746062994,9.073219357,9.073219356924115
7.321191634,1.762014747,8.551649094,-2.45383954,9.06954942,9.06954942009932
7.323697675,1.939083695,8.690432549,-2.16670084,9.16396508,9.163965080410891
7.326203665,2.202593327,8.855836868,-1.876870275,9.316646716,9.316646715742289
7.328709707,2.583351135,9.013762474,-1.589731574,9.510460741,9.510460740772178
7.331215748,3.059522867,9.159725189,-1.323829174,9.747500674,9.747500674205183
7.33372179,3.605385542,9.291629791,-1.039083242,10.02062289,10.02062288798788
7.33622778,4.122534275,9.37298584,-0.7516453862,10.26708932,10.26708932424307
7.338733821,4.591826439,9.437591553,-0.4597210586,10.50544372,10.505443723083603
7.341239863,5.034798145,9.483055115,-0.2009970993,10.73861846,10.73861846370147
7.343745905,5.413163185,9.518947601,0.004785645287,10.95046675,10.950466748062562
7.346251894,5.77208662,9.533304214,0.1746760458,11.14591337,11.1459133724621
7.348757936,6.08584547,9.533304214,0.3305086195,11.31506254,11.315062539330194
7.351263978,6.308377743,9.545269012,0.4740779996,11.45131172,11.451311724406509
7.353770019,6.447161674,9.564411163,0.5673980713,11.54841094,11.548410934709956
7.356276009,6.488138676,9.590732574,0.6702894568,11.598594,11.59859399845037
7.35878205,6.459424496,9.588339806,0.7564310431,11.5858799,11.585879896572997
7.361288092,6.372983932,9.573982239,0.8401798606,11.53178054,11.531780535042083
7.363794082,6.255735874,9.542876244,0.8258228898,11.4403978,11.440397798104213
7.366300123,6.059524059,9.506983757,0.7731808424,11.30037082,11.30037081659341
7.368806165,5.812764645,9.463912964,0.6296114326,11.12431085,11.124310853459187
7.371312207,5.547161102,9.396913528,0.4788636267,10.92255879,10.922558789827022
7.373818196,5.278865814,9.332307816,0.2727817893,10.72533465,10.725334650227298
7.376324238,4.99651289,9.241081238,0.02871387079,10.50540566,10.505405655833929
7.37883028,4.716253281,9.140582085,-0.2249253243,10.28804536,10.288045356853637
7.381336321,4.460221291,9.049654961,-0.4932205677,10.10114327,10.101143272236264
7.383842363,4.232903481,8.97308445,-0.7588238716,9.950353264,9.950353264804408
7.386348353,4.000500202,8.913264275,-1.003190875,9.821235861,9.821235860821007
7.388854394,3.766003847,8.894122124,-1.223330617,9.735745022,9.73574502186323
7.391360436,3.540779352,8.841479301,-1.381256819,9.623759404,9.623759403143607
7.393866425,3.344567776,8.798408508,-1.448554993,9.523467722,9.523467721877866
7.396372467,3.12921381,8.752944946,-1.472483277,9.411388383,9.411388383094511
7.398878509,2.925524712,8.731410027,-1.443769336,9.320980945,9.320980945999874
7.40138455,2.71974206,8.719446182,-1.369292736,9.235837872,9.235837871605899
7.40389054,2.552244425,8.707481384,-1.347757339,9.173365441,9.173365440364757
7.406396582,2.439482689,8.71705246,-1.278365493,9.14178854,9.141788540215522
7.408902623,2.34137702,8.760123253,-1.208973646,9.147864397,9.147864397456814
7.411408665,2.248056889,8.793622971,-1.094118118,9.142136467,9.142136467391802
7.413914655,2.176272154,8.863015175,-0.9649057388,9.177158687,9.177158686942557
7.416420696,2.159522533,8.927620888,-0.8524430394,9.22456565,9.224565649710026
7.418926738,2.123630047,8.982656479,-0.7085745931,9.257429446,9.257429446138314
7.42143278,2.145165443,9.040083885,-0.5291129351,9.306170637,9.306170636935915
7.423938769,2.24566412,9.092725754,-0.3544368446,9.372635406,9.372635406016828
7.426444811,2.343769789,9.133403778,-0.1914258152,9.431275907,9.431275907242814
7.428950853,2.456232548,9.152546883,-0.04546362907,9.476510946,9.476510946384002
7.431456894,2.597707987,9.193224907,0.07178468257,9.553461363,9.553461363142702
7.433962884,2.75084877,9.217152596,0.1722832322,9.620434109,9.620434108992033
7.436468925,2.894418001,9.255437851,0.2512463629,9.70071699,9.70071698964086
7.438974967,3.026023388,9.320343018,0.3161516786,9.804364507,9.804364507798859
7.441480957,3.112463951,9.351449966,0.3735794425,9.862890546,9.862890545511217
7.443986998,3.169891834,9.396913528,0.4214358926,9.926117384,9.926117383123215
7.44649304,3.186641455,9.392127991,0.4716851711,9.929211391,9.929211391781617
7.448999082,3.155534744,9.404091835,0.5123631358,9.932615907,9.932615906428255
7.451505123,3.004487991,9.399306297,0.5602195859,9.883711496,9.8837114960582
7.454011113,2.805883646,9.384949684,0.6008976102,9.813834192,9.813834191795072
7.456517155,2.695813894,9.346664429,0.5697908998,9.74434247,9.744342469808428
7.459023196,2.549851656,9.31555748,0.5578267574,9.67432299,9.674322990373089
7.461529186,2.365305185,9.274879456,0.579362154,9.589250129,9.589250129546432
7.464035228,2.099701881,9.231510162,0.6463612318,9.489326146,9.489326145841876
7.466541269,1.83619225,9.243474007,0.7181459069,9.451409801,9.451409801751373
7.469047311,1.604088426,9.26530838,0.7444669604,9.432564344,9.43256434433673
7.4715533,1.359721422,9.31555748,0.7851449251,9.44695221,9.446952210212558
7.474059342,1.141974568,9.361021042,0.8090731502,9.465063139,9.465063138991738
7.476565384,1.017547846,9.387342453,0.794716239,9.475715057,9.475715057415224
7.479071425,0.9960124493,9.387342453,0.7468597889,9.469532125,9.469532125365667
7.481577415,1.063011408,9.384949684,0.7181459069,9.472222937,9.472222937006237
7.484083457,1.144367456,9.380164146,0.7612167001,9.480322102,9.480322101319498
7.486589498,1.326221943,9.39452076,0.7875377536,9.5202994,9.520299399993206
7.48909554,1.462911963,9.447162628,0.7971090674,9.592933649,9.592933649134642
7.49160153,1.529910922,9.523733139,0.7851449251,9.677735938,9.677735937994589
7.494107571,1.649552107,9.581160545,0.8210372925,9.756729052,9.756729051195823
7.496613613,1.733300924,9.640981674,0.9242277741,9.839057715,9.839057714535521
7.499119655,1.85294199,9.712766647,0.97926265,9.936306421,9.936306421153981
7.501625644,1.888834357,9.796515465,1.115653515,10.03912811,10.03912811202744
7.504131686,1.903191328,9.8638134,1.228116274,10.12053465,10.120534650079392
7.506637728,1.903191328,9.909276962,1.21854496,10.16369809,10.163698094696622
7.509143769,1.881655931,9.961918831,1.12283206,10.2000592,10.200059199488193
7.511649759,1.819442511,10.00977516,0.9696913958,10.21989585,10.219895851116858
7.5141558,1.668694735,10.09113121,0.8476574421,10.26323508,10.263235082331512
7.516661842,1.474876046,10.15573788,0.7085745931,10.2867074,10.286707402872812
7.519167884,1.20179522,10.23709393,0.5841478109,10.32393493,10.323934935257824
7.521673873,0.9242277741,10.31366348,0.4477569461,10.36466776,10.364667753473064
7.524179915,0.555433929,10.39531898,0.3687937856,10.41667761,10.416677608610618
7.526685957,0.1507478207,10.48863888,0.4166502357,10.49799351,10.497993516829887
7.529191998,-0.3664009571,10.58674431,0.5338985324,10.60652876,10.60652876249247
7.531697988,-0.9050851464,10.67288589,0.6583253145,10.73140553,10.731405525974056
7.53420403,-1.525125384,10.7422781,0.8330013752,10.8819317,10.88193169918585
7.536710071,-2.13559413,10.7925272,0.9457631707,11.04236721,11.042367211150099
7.539216113,-2.71974206,10.80688477,1.060618639,11.19422472,11.194224725383407
7.541722103,-3.291925669,10.78056335,1.15393877,11.33088238,11.330882376871337
7.544228144,-3.864109516,10.72552872,1.177866936,11.46105052,11.461050527508752
7.546734186,-4.321437836,10.68963623,1.10608232,11.58302922,11.583029215138739
7.549240228,-4.768895626,10.67049313,1.041476011,11.73398744,11.733987447178713
7.551746217,-5.132903576,10.68963623,0.9242277741,11.89408335,11.894083353863804
7.554252259,-5.494519234,10.75663471,0.8644071817,12.10958842,12.10958841880876
7.5567583,-5.75772953,10.87866879,0.8859425783,12.34025033,12.340250331139922
7.559264342,-5.863013744,11.04885864,0.8811569214,12.5390847,12.539084692638722
7.561770332,-5.88694191,11.249856,1.01036942,12.73719715,12.73719715782564
7.564276373,-5.75772953,11.47717381,1.118046403,12.88902617,12.889026175970207
7.566782415,-5.51605463,11.70000553,1.204187989,12.99103756,12.991037556562867
7.569288457,-5.097011566,11.92493057,1.292722464,13.03282883,13.032828832306075
7.571794446,-4.517649174,12.10947704,1.465304732,13.00752499,13.00752498361051
7.574300488,-3.782753468,12.27936745,1.728515267,12.96456146,12.964561458068593
7.57680653,-2.990130901,12.40618706,2.023131609,12.9208135,12.920813506902787
7.579312571,-2.233700037,12.47797203,2.298306227,12.8829893,12.882989301781754
7.581818561,-1.529910922,12.49950695,2.520838737,12.84262159,12.84262159219499
7.584324603,-0.9601200819,12.47318649,2.717349291,12.80180452,12.801804519491945
7.586830644,-0.5482555032,12.39183044,2.97577405,12.75591146,12.755911451054882
7.589336686,-0.2679961324,12.29372501,3.291925669,12.72966108,12.729661077919628
7.591842675,-0.1411765367,12.15015507,3.581457376,12.66779523,12.66779522946539
7.594348717,-0.1339980662,11.95125198,3.751646757,12.5269802,12.526980193187338
7.596854759,-0.2703889608,11.72871971,3.71336174,12.30548787,12.305487866718686
7.5993608,-0.5195416212,11.50857925,3.46420908,12.02988215,12.029882144046306
7.60186679,-0.8500502706,11.30249786,3.088535786,11.74768474,11.747684735268239
7.604372832,-1.252044439,11.1445713,2.635993242,11.52031012,11.520310113442441
7.606878873,-1.726122379,11.02971554,2.173879385,11.37364827,11.373648268745173
7.609384915,-2.21216464,10.97707367,1.728515267,11.33038321,11.330383214142657
7.611890905,-2.67188549,10.98903847,1.319043517,11.38586028,11.385860282233935
7.614396946,-3.102892876,11.10628605,1.005583763,11.57535022,11.575350220566348
7.616902988,-3.528815269,11.27139091,0.7827520967,11.83678551,11.836785505095815
7.61940903,-3.916751623,11.49631596,0.7348956466,12.16742764,12.167427646787774
7.621915019,-4.213760853,11.72632694,0.8955138922,12.49257656,12.49257656214955
7.624421061,-4.402793884,11.96800137,1.182652593,12.80688556,12.80688556726573
7.626927103,-4.565505505,12.17647648,1.53230381,13.0942115,13.094211505482834
7.629433144,-4.649254322,12.39661598,1.711765528,13.34997359,13.349973585332526
7.631939134,-4.685146809,12.61196995,1.556231976,13.54378989,13.543789890747373
7.634445175,-4.656432629,12.81805134,1.036690354,13.67697086,13.676970858833045
7.636951217,-4.610969067,13.06690502,0.2922234535,13.85966945,13.859669443580085
7.639457259,-4.570291042,13.3710928,-0.3735794425,14.13553127,14.135531276703253
7.641963248,-4.529613495,13.74945831,-0.7157530785,14.49404377,14.494043766385433
7.64446929,-4.534399033,14.21366596,-0.6152545214,14.93210008,14.932100077987597
7.646975332,-4.58943367,14.71645737,-0.04546362907,15.41554689,15.415546888642167
7.649481373,-4.752145767,15.22164249,0.7875377536,15.96563514,15.965635132920166
7.651987415,-5.001298428,15.69811249,1.728515267,16.56597376,16.56597376379853
7.654493405,-5.336592674,16.10997772,2.662314177,17.17843184,17.178431834254894
7.656999446,-5.726622581,16.44736481,3.602992773,17.78458805,17.784588055412915
7.659505488,-6.167201042,16.72762489,4.508078098,18.38941466,18.389414653290647
7.66201153,-6.660421848,16.92383575,5.298008442,18.94323967,18.94323966848852
7.664517519,-7.208677292,17.05783463,5.975775242,19.45879339,19.458793392898848
7.667023561,-7.81196785,17.11047745,6.600601196,19.93397141,19.93397141577736
7.669529603,-8.412865639,17.09851265,7.124928474,20.34453364,20.344533635885902
7.672035644,-9.037691116,17.03151321,7.587042332,20.71993037,20.719930363738914
7.674541634,-9.636196136,16.94776535,8.09671402,21.11018248,21.11018247793672
7.677047675,-10.19162941,16.84008789,8.601898193,21.48139946,21.481399458518485
7.679553717,-10.70399284,16.75155258,8.779266357,21.73167031,21.731670306868452
7.682059759,-11.11107159,16.70130348,8.451150894,21.76720931,21.76720931222747
7.684565748,-11.37189007,16.70608902,7.620542049,21.59828593,21.598285932659245
7.68707179,-11.39581776,16.89272881,6.179165363,21.29345048,21.293450487195223
7.689577832,-11.1876421,17.30698776,4.350151539,21.06226435,21.062264348705394
7.692083873,-10.81884861,17.82652855,3.030808926,21.07174431,21.07174430691454
7.694589863,-10.44317532,18.27667809,2.722134829,21.2251476,21.225147603656332
7.697095905,-10.08873844,18.67627907,2.499303341,21.37364172,21.373641720623734
7.699601946,-9.741479874,19.05943108,1.905584097,21.48929021,21.489290215815792
7.702107988,-9.349057198,19.42343903,0.7971090674,21.5710509,21.571050904138495
7.704613978,-8.903693199,19.72732735,-1.031904817,21.66813385,21.668133849211024
7.707120019,-8.446364403,19.85414696,-3.430709362,21.84715061,21.84715061201477
7.709626061,-8.079963684,19.72014809,-4.768895626,21.83832455,21.83832455381986
7.712132103,-7.737790108,19.33699799,-3.921537161,21.19366275,21.19366274917648
7.714638144,-7.321139812,18.86561203,-2.377269268,20.37551998,20.375519983203112
7.717144134,-6.758527756,18.43939018,-1.699801445,19.71238526,19.712385258799273
7.719650175,-6.100202084,18.08495331,-2.078166485,19.19887438,19.198874384450125
7.722156217,-5.30279398,17.74995804,-3.002095222,18.7668114,18.76681140039618
7.724662259,-4.228117466,17.41466331,-3.751646757,18.30907778,18.309077772959046
7.727168248,-3.028416157,17.1993103,-4.335794449,17.99407382,17.994073822223914
7.72967429,-1.558624864,16.98126411,-4.156033993,17.55178797,17.551787965652522
7.732180332,0.2105683982,16.61755562,-3.315854073,16.94645633,16.946456327726597
7.734686373,2.027917147,16.08844185,-3.169891834,16.52266998,16.52266998263864
7.737192415,3.593421459,15.51865101,-3.588635683,16.32848777,16.328487774974036
7.739698405,4.977370262,14.93689632,-4.110570431,16.27211959,16.27211958128636
7.742204446,6.420840263,14.33599854,-4.924727917,16.46210766,16.462107668167015
7.744710488,7.893323898,13.7036953,-5.788836002,16.84061903,16.84061902935968
7.74721653,9.337093353,13.06451225,-6.375376701,17.27739045,17.277390448001412
7.749722519,10.74945641,12.4181509,-6.837490559,17.79079993,17.79079992664959
7.752228561,12.29851055,11.85553932,-7.146463871,18.51699544,18.516995441378597
7.754734603,13.78056431,11.35992527,-7.452745438,19.35188025,19.35188025504654
7.757240644,15.03739452,10.89781189,-7.847859859,20.16121133,20.161211330335657
7.759746686,16.18654823,10.4599247,-8.365009308,21.00923009,21.00923009190753
7.762252675,17.22323799,10.0767746,-9.049654961,21.91067247,21.910672470568684
7.764758717,18.16152382,9.638588905,-9.334700584,22.5805221,22.580522105056527
7.767264759,18.94218254,9.126225471,-8.673683167,22.7448247,22.744824695031376
7.7697708,19.6579361,8.513363838,-7.223034382,22.60716791,22.60716791713202
7.77227679,20.35215378,7.78325367,-5.659623623,22.51267511,22.512675112708315
7.774782832,20.99612045,6.969096184,-4.872086048,22.65265102,22.652651015540496
7.777288873,21.62364006,5.932704449,-4.9821558,22.96955959,22.96955959392985
7.779794915,22.21735764,4.744967461,-5.602196217,23.39893799,23.398937992212044
7.782300905,22.60978127,3.61017108,-6.083452702,23.6905876,23.69058760524066
7.784806946,22.77997017,2.793919563,-6.047560215,23.73406859,23.734068593999105
7.787312988,22.67438698,2.552244425,-5.58066082,23.49011604,23.490116042957734
7.78981903,22.25564384,2.793919563,-4.864907742,22.95184082,22.95184081061072
7.792325071,21.52284241,3.349353552,-4.129712582,22.16992198,22.169921980735943
7.794831061,20.62044907,4.01964283,-3.543172121,21.3052697,21.305269700434817
7.797337103,19.67229271,4.651647091,-3.200998545,20.46663902,20.466639020909614
7.799843144,18.79592133,5.202295303,-3.0981071,19.74712137,19.747121376702864
7.802349186,18.02752495,5.640480995,-3.198605776,19.15822958,19.15822957864555
7.804855175,17.38834381,5.997310638,-3.418745279,18.70855565,18.70855565312614
7.807361217,16.87837219,6.219843388,-3.708575964,18.36625807,18.366258062985267
7.809867259,16.45215034,6.310770512,-4.012464523,18.07204878,18.07204877188595
7.8123733,16.05494308,6.317949295,-4.29750967,17.78050253,17.780502522706563
7.814879342,15.65743542,6.179165363,-4.551148891,17.43703887,17.437038875417468
7.817385332,15.25035572,5.987739563,-4.79073,17.06978232,17.06978232414673
7.819891373,14.80499172,5.736194134,-5.037190914,16.65728055,16.65728054864565
7.822397415,14.31924915,5.413163185,-5.271687508,16.19055037,16.190550363382286
7.824903457,13.81645679,5.053940296,-5.453841209,15.69016172,15.690161716134613
7.827409446,13.33280754,4.675575256,-5.539982796,15.17617113,15.176171132837698
7.829915488,12.8754797,4.237689018,-5.520840168,14.63610815,14.636108153433144
7.83242153,12.45404339,3.799503326,-5.480162144,14.12698125,14.126981256051076
7.834927571,12.10708427,3.318246841,-5.458626747,13.68900499,13.689004988740114
7.837433561,11.75504017,2.832204819,-5.47298336,13.27237358,13.272373577997167
7.839939603,11.44128132,2.362912416,-5.511268616,12.91744383,12.91744382944143
7.842445644,11.15653515,1.874477386,-5.537590027,12.59550893,12.595508934971257
7.844951686,10.84756279,1.424626827,-5.525625706,12.25690497,12.256904973198115
7.847457728,10.58435154,1.012762189,-5.422734261,11.93567056,11.935670556746766
7.849963717,10.35673428,0.6128616929,-5.307579517,11.65366658,11.65366657882528
7.852469759,10.15334511,0.2608176768,-5.192724228,11.40713933,11.407139329882424
7.8549758,9.973882675,-0.002392822644,-5.075475693,11.19101402,11.191014022442255
7.857481842,9.815657616,-0.2392822653,-4.965405941,11.00271087,11.002710874868246
7.859987884,9.736694336,-0.4070789516,-4.848157883,10.88455625,10.884556248374357
7.862493873,9.691230774,-0.4812564552,-4.733003139,10.79596593,10.79596593197571
7.864999915,9.696016312,-0.4932205677,-4.601397991,10.7437825,10.743782496055625
7.867505957,9.739087105,-0.4549354017,-4.448257446,10.71651894,10.716518938740867
7.870011998,9.80608654,-0.3687937856,-4.364508629,10.73984533,10.739845327512024
7.872517988,9.916455269,-0.2368894368,-4.33340168,10.82453564,10.824535640274464
7.87502403,10.05763149,-0.1076770201,-4.33340168,10.95198227,10.951982270325498
7.877530071,10.21316528,-0.002392822644,-4.342973232,11.09820559,11.098205587213918
7.880036113,10.36869907,0.07896314561,-4.350151539,11.24455308,11.244553081152116
7.882542103,10.51017475,0.1603191197,-4.335794449,11.37051402,11.370514016510342
7.885048144,10.6417799,0.2273181528,-4.316651821,11.48619327,11.486193273943243
7.887554186,10.75424194,0.2512463629,-4.271188259,11.57410444,11.574104439771782
7.890060228,10.83799076,0.2826521695,-4.187140465,11.62213755,11.622137550227533
7.892566269,10.86909771,0.2632105052,-4.065106392,11.60739655,11.607396554691071
7.895072259,10.82124138,0.2392822653,-3.888037682,11.50101552,11.501015521394766
7.8975783,10.76620674,0.1938186288,-3.665505171,11.37473962,11.374739618466837
7.900084342,10.68724346,0.1435693651,-3.459423304,11.23411744,11.234117434501307
7.902590384,10.60588741,0.0765703246,-3.308675528,11.11026753,11.110267526832642
7.905096373,10.50060272,0.009571290575,-3.196212769,10.97627101,10.976271004197798
7.907602415,10.4288187,-0.08135596663,-3.12921381,10.8884736,10.888473600072267
7.910108457,10.37827015,-0.1842473447,-3.078665495,10.82684717,10.826847168982928
7.912614498,10.31844902,-0.2727817893,-3.028416157,10.75714202,10.757142022995295
7.91512054,10.26341438,-0.3424727321,-2.970988512,10.69026357,10.690263562993142
7.91762653,10.23709393,-0.4166502357,-2.927917719,10.65572107,10.655721079297537
7.920132571,10.16052341,-0.4932205677,-2.894418001,10.57625445,10.576254443708944
7.922638613,10.09113121,-0.5817549825,-2.875275612,10.5088809,10.508880901507144
7.925144655,9.997811317,-0.6774678826,-2.848954439,10.41785656,10.417856557746685
7.927650696,9.918848038,-0.7803592682,-2.81545496,10.34017861,10.340178606783864
7.930156686,9.791728973,-0.8835497499,-2.827419043,10.23000073,10.230000727563757
7.932662728,9.67926693,-0.9816554785,-2.834597588,10.13344952,10.133449524547705
7.935168769,9.614660263,-1.091725349,-2.820240498,10.07905316,10.079053163721266
7.937674811,9.559625626,-1.197009563,-2.784348249,10.0285527,10.028552695922713
7.9401808,9.47109127,-1.304686546,-2.738884687,9.945112678,9.945112676921601
7.942686842,9.396913528,-1.381256819,-2.67188549,9.866550883,9.866550882877764
7.945192884,9.334700584,-1.43659091,-2.638386011,9.806197489,9.806197488255327
7.947698925,9.29402256,-1.494018674,-2.633600473,9.774804274,9.774804274021834
7.950204967,9.195617676,-1.505982757,-2.57617259,9.667679852,9.667679852012698
7.952710957,9.097511292,-1.517946839,-2.566601276,9.573730538,9.573730538513313
7.955216998,8.977870941,-1.539482236,-2.492124796,9.443667624,9.443667623706895
7.95772304,8.906085968,-1.565803289,-2.449054003,9.368456261,9.368456261244967
7.960229082,8.822337151,-1.58016026,-2.370090723,9.270807369,9.270807369827544
7.962735123,8.776873589,-1.589731574,-2.353341103,9.224910342,9.224910342205364
7.965241113,8.697610855,-1.565803289,-2.343769789,9.142944348,9.142944347893962
7.967747155,8.635397911,-1.54905355,-2.248056889,9.056678406,9.056678406471718
7.970253196,8.640183449,-1.508375525,-2.221735716,9.047876897,9.047876897291573
7.972759238,8.654540062,-1.460519075,-2.169093609,9.040970453,9.040970453320067
7.975265228,8.635397911,-1.400399446,-2.063809633,8.988355016,8.98835501584822
7.977771269,8.678468704,-1.338186026,-2.015953064,9.009474327,9.009474326659692
7.980277311,8.700303078,-1.230509043,-1.90079844,8.990131304,8.990131304017059
7.982783353,8.68803978,-1.115653515,-1.843370795,8.951242029,8.95124202958747
7.985289342,8.729017258,-0.9816554785,-1.838585138,8.974396084,8.974396084339347
7.987795384,8.834300995,-0.8476574421,-1.953440547,9.08731683,9.08731683061998
7.990301425,8.906085968,-0.7109674215,-2.090130568,9.175646448,9.175646447805672
7.992807467,8.968298912,-0.5482555032,-2.080559254,9.222781374,9.222781374464782
7.995313509,9.047262192,-0.4022932947,-1.970489502,9.268096997,9.268096996862162
7.997819498,9.092725754,-0.2536391914,-1.826620936,9.277852042,9.277852042401971
8.00032554,9.00179863,-0.1627119333,-1.632802367,9.150131,9.15013100004524
8.002831582,8.793622971,-0.0933200866,-1.534696579,8.927026783,8.927026782991982
8.005337623,8.743373871,0.0933200866,-1.41984117,8.858399643,8.858399642975899
8.007843665,8.793622971,0.3017947674,-1.407876968,8.910724022,8.910724021916163
8.010349655,8.908478737,0.5506483316,-1.31425786,9.021722713,9.02172271327637
8.012855696,9.068798065,0.8234301209,-1.065404296,9.168218029,9.16821802869502
8.015361738,9.198010445,1.130010486,-0.7564310431,9.29798407,9.297984070096291
8.01786778,9.322735786,1.386042476,-0.4549354017,9.436179444,9.436179444063217
8.020373769,9.487840652,1.656730533,-0.2225325108,9.633970989,9.633970988905935
8.022879811,9.676874161,1.915155411,-0.1004985496,9.865080523,9.865080523471855
8.025385853,9.971489906,2.169093609,-0.06699903309,10.20490406,10.204904061307953
8.027891894,10.03848934,2.477767944,0.01914258115,10.33977605,10.339776044577595
8.030397936,10.14855862,2.765205622,-0.06460621208,10.51873462,10.51873462723326
8.032903925,10.25145054,3.143570662,-0.2129612118,10.72472038,10.724720376717741
8.035409967,10.29930687,3.571886063,-0.5147559643,10.91325184,10.913251841328746
8.037916009,10.14855862,3.957429647,-0.8524430394,10.92616815,10.926168157682378
8.04042205,9.676874161,4.417150497,-1.053440213,10.68938017,10.689380165535432
8.042928092,9.301200867,4.934299469,-1.386042476,10.61982874,10.619828744538749
8.045434082,8.839086533,5.461019516,-1.721336842,10.53162786,10.53162786161861
8.047940123,8.195118904,6.02363205,-1.874477386,10.34203957,10.342039566502864
8.050446165,7.43360281,6.612565517,-1.726122379,10.09772113,10.09772112512234
8.052952207,6.591030121,7.220641613,-1.347757339,9.868930702,9.868930702165502
8.055458248,5.453841209,7.833503246,-0.632004261,9.565959776,9.565959775370231
8.057964238,4.338187218,8.455936432,0.0765703246,9.504135536,9.50413553644164
8.06047028,3.351746321,9.044869423,0.4980062246,9.658771996,9.658771996439182
8.062976321,2.338984251,9.585947037,0.6272186637,9.887094172,9.887094172439582
8.065482363,1.261615753,10.0265255,0.689432025,10.12907717,10.129077175511283
8.067988405,0.2440679073,10.40728283,0.632004261,10.42931131,10.42931131153485
8.070494394,-0.7253243923,10.75424194,0.6918248534,10.80085353,10.800853522101956
8.073000436,-1.807478428,10.95075321,1.110867858,11.15437141,11.154371409091064
8.075506478,-2.97577405,10.96032429,2.044667006,11.53969683,11.53969682894843
8.078012519,-4.194318771,10.79491997,3.507279873,12.10056276,12.10056276455846
8.080518561,-5.420341492,10.4096756,5.276473045,12.86789088,12.867890883192308
8.08302455,-6.543173313,9.894919395,7.053143978,13.8010647,13.801064698489759
8.085530592,-7.486244678,9.353842735,8.656932831,14.78109331,14.781093306330263
8.088036634,-8.30279541,8.683254242,9.83509922,15.52625172,15.526251721480387
8.090542675,-9.085547447,7.878966808,10.49581718,15.96206342,15.962063420787334
8.093048665,-9.535696983,6.969096184,10.40010452,15.7372168,15.737216799687392
8.095554707,-9.736694336,6.054738522,9.686445236,15.00967343,15.00967342990887
8.098060748,-9.813264847,5.144867897,8.463114738,13.94253003,13.942530032368586
8.10056679,-9.794121742,4.249652863,6.985845566,12.7587777,12.75877770106224
8.103072832,-9.652945518,3.535993576,5.492125988,11.65530161,11.655301609613305
8.105578821,-9.430413246,3.162713289,4.203890324,10.79852505,10.798525047198357
8.108084863,-9.514162064,3.107678413,3.217748165,10.51336522,10.513365215383883
8.110590905,-9.643374443,3.413959742,2.465803623,10.52283133,10.522831333586138
8.113096946,-9.712766647,4.067499161,2.07098794,10.73179279,10.73179278645636
8.115602988,-10.04566765,4.958227634,2.350948334,11.44667715,11.44667715426425
8.118108978,-10.63938713,6.078666687,3.22492671,12.6707103,12.670710298895031
8.120615019,-11.42213917,7.385746002,4.395615101,14.29461225,14.294612248712678
8.123121061,-12.6433754,8.709874153,5.575874805,16.33423488,16.33423487976882
8.125627103,-14.03181076,9.959526062,6.291627884,18.32125689,18.321256889603273
8.128133144,-15.30060482,11.03450203,6.329913139,19.89815427,19.89815426754869
8.130639134,-16.1195488,11.79571819,5.609374523,20.74714206,20.74714206036002
8.133145175,-16.74198151,12.0350008,4.546362877,21.11408545,21.114085453709478
8.135651217,-17.09851265,11.73829079,3.468994617,21.02808905,21.028089051684745
8.138157259,-16.99562073,10.99621677,2.626421928,20.41239818,20.412398178428575
8.140663248,-16.60559082,9.93559742,2.200200319,19.47569316,19.4756931588405
8.14316929,-15.69332695,8.784051895,1.872084618,18.0816144,18.081614398902595
8.145675332,-14.29502201,7.66839838,1.513161182,16.29237996,16.292379959462114
8.148181373,-12.55932808,6.643671989,1.094118118,14.25034013,14.250340128384149
8.150687415,-10.59870911,6.05713129,0.5961119533,12.22198117,12.221981170152455
8.153193405,-8.63779068,6.370591164,0.1196411327,10.73360022,10.733600216654404
8.155699446,-6.662814617,6.823133945,-0.4022932947,9.545160834,9.545160833997546
8.158205488,-4.577469826,7.412067413,-1.364507079,8.81781452,8.817814520131282
8.16071153,-2.379662037,8.178368568,-2.386840582,8.845649316,8.845649315243707
8.163217571,-0.2321037948,9.145368576,-2.449054003,9.47045427,9.470454269572244
8.165723561,1.72372961,10.28016472,-1.881655931,10.59215084,10.592150843024797
8.168229603,3.397209883,11.39342499,-1.541875124,11.98868412,11.988684118364258
8.170735644,4.783551693,12.50429249,-1.960619092,13.53084346,13.530843458520554
8.173241686,5.920740604,13.70848083,-2.67188549,15.1695942,15.169594194901995
8.175747728,6.83509779,15.11875057,-2.705385208,16.81113589,16.81113588430013
8.178253717,7.361817837,16.87358665,-1.278365493,18.4539564,18.453956395145262
8.180759759,7.311568737,19.04507446,1.946262121,20.49297038,20.492970375874247
8.1832658,6.567101955,21.45105743,6.540780544,23.36785192,23.36785191405688
8.185771842,5.068297386,23.58904457,11.08953667,26.55387892,26.55387891954122
8.188277832,2.810669184,24.7980175,13.79013634,28.51331958,28.513319579943374
8.190783873,0.1172483116,24.546772,13.50987625,28.01918127,28.019181270637997
8.193289915,-2.62402916,22.96182442,10.54367352,25.40275498,25.402754988854806
8.195795957,-5.190331459,20.54866409,6.485745907,22.1642062,22.164206200721644
8.198301998,-7.330711365,17.96770477,3.191427231,19.66628973,19.666289726066513
8.20080804,-9.270093918,15.77946854,1.90079844,18.39943758,18.399437582787602
8.20331403,-10.95553875,14.20170116,2.384447813,18.09413542,18.094135417687617
8.205820071,-12.48754311,13.2777729,3.766003847,18.6123822,18.61238219798051
8.208326113,-13.68694592,12.88983631,5.063511848,19.47099178,19.470991781376608
8.210832155,-13.90259838,12.88744354,5.219045162,19.66232121,19.662321203643835
8.213338196,-12.65534019,12.99272823,4.132105827,18.60222892,18.60222891883646
8.215844186,-10.17009449,12.90897942,2.439482689,16.61395941,16.61395941344033
8.218350228,-6.775277138,12.58325577,0.7348956466,14.31023332,14.31023332029689
8.220856269,-2.966202736,11.9727869,-0.4286143482,12.34219167,12.342191664503853
8.223362311,0.6822535396,11.01296616,-0.9936196208,11.07872616,11.078726167048295
8.225868353,3.919144392,9.80608654,-1.271187067,10.63649108,10.636491082806504
8.228374342,6.78484869,8.458329201,-1.620838284,10.96378682,10.96378681667808
8.230880384,9.284450531,7.115357399,-2.154736757,11.89420964,11.894209644615193
8.233386425,11.4197464,5.879763603,-2.848954439,13.15670055,13.156700546222607
8.235892467,13.19641685,4.785944462,-3.509672642,14.46957098,14.469570972434381
8.238398509,14.59920883,3.902394533,-4.057928085,15.64711993,15.647119923365132
8.240904498,15.68136311,3.22492671,-4.424329281,16.60963548,16.609635482431706
8.24341054,16.44257927,2.820240498,-4.594219685,17.30372862,17.303728616423527
8.245916582,16.93580055,2.781955481,-4.642076015,17.77946811,17.779468110623686
8.248422623,17.15145302,3.066701412,-4.752145767,18.05989722,18.059897221148464
8.250928665,17.10569,3.574278831,-5.085047245,18.1999397,18.199939698298916
8.253434655,16.89990807,4.184747696,-5.678766251,18.31303885,18.31303885724936
8.255940696,16.56252098,4.783551693,-6.473781586,18.41492102,18.41492101627851
8.258446738,16.14587021,5.408377171,-7.239784241,18.5028145,18.502814497210725
8.26095278,15.70529175,6.030810356,-7.601399422,18.46098956,18.460989563819076
8.263458821,15.27667713,6.669992924,-7.364210606,18.22353609,18.22353608907991
8.265964811,14.86242008,7.342675209,-6.509674072,17.80961163,17.80961162919954
8.268470853,14.45324707,8.003393173,-5.228616714,17.32885126,17.328851257080103
8.270976894,14.02463245,8.618648529,-3.981357813,16.93583857,16.935838563802
8.273482936,13.5409832,9.174081802,-3.066701412,16.64111356,16.641113558978937
8.275988978,12.99033546,9.612267494,-2.674278498,16.37975175,16.37975174489551
8.278494967,12.39422321,9.887741089,-2.669492722,16.07825812,16.078258121301964
8.281001009,11.77896881,10.05763149,-2.820240498,15.74337365,15.743373649956727
8.28350705,11.1876421,10.11745262,-2.920739174,15.36414334,15.364143340849678
8.286013092,10.55324554,10.11745262,-2.877668381,14.90016156,14.900161551355136
8.288519134,9.878170013,10.11266708,-2.734098911,14.39859629,14.398596290325647
8.291025123,9.224330902,10.0767746,-2.552244425,13.89761197,13.897611972340458
8.293531165,8.601898193,10.04566765,-2.43708992,13.44795517,13.447955173005255
8.296037207,7.969893932,10.04806042,-2.386840582,13.04529553,13.045295529622283
8.298543248,7.357032299,10.0767746,-2.24566412,12.67715733,12.67715732834415
8.30104929,6.715456963,10.11027431,-2.027917147,12.30558641,12.305586406199737
8.30355528,6.059524059,10.13898754,-1.7883358,11.94634024,11.94634023839254
8.306061321,5.386841774,10.19402313,-1.592124343,11.63920237,11.639202369434928
8.308567363,4.725824833,10.2275219,-1.568196177,11.37518632,11.375186320088849
8.311073405,4.139284134,10.23948669,-1.642373681,11.16593714,11.165937135982487
8.313579446,3.629313707,10.22273636,-1.728515267,10.98471764,10.984717643077415
8.316085488,3.277568817,10.20837975,-1.771586061,10.86701392,10.86701392480521
8.318591478,3.057130098,10.1844511,-1.771586061,10.77996317,10.77996316394069
8.321097519,2.970988512,10.14616585,-1.75722909,10.7172435,10.71724350142724
8.323603561,2.990130901,10.13659477,-1.800299883,10.72065838,10.720658375540014
8.326109603,3.026023388,10.16291618,-1.946262121,10.78098415,10.780984142000591
8.328615644,3.061915636,10.19162941,-2.202593327,10.86720087,10.867200870366903
8.331121634,3.023630619,10.16291618,-2.506481647,10.89539617,10.895396167584176
8.333627675,2.889632463,10.08873844,-2.844168901,10.8729902,10.872990196784537
8.336133717,2.674278498,9.926026344,-3.107678413,10.73943339,10.73943339218943
8.338639759,2.413161755,9.688838005,-3.284747362,10.51125572,10.511255718280903
8.3411458,2.178664923,9.418449402,-3.356531858,10.23328276,10.233282762560297
8.34365179,1.982453585,9.188439369,-3.272783279,9.953323598,9.953323597963168
8.346157832,1.881655931,9.018548965,-3.061915636,9.708253285,9.708253284641442
8.348663873,1.845763564,8.920442581,-2.803490877,9.531038772,9.531038771956085
8.351169915,1.929512382,8.918049812,-2.566601276,9.478505821,9.478505820622223
8.353675957,2.145165443,8.989834785,-2.362912416,9.539508338,9.53950833770401
8.356181998,2.461018085,9.049654961,-2.16670084,9.625354926,9.62535492633418
8.358687988,2.877668381,9.119047165,-1.946262121,9.758377568,9.758377567615485
8.36119403,3.346960783,9.164510727,-1.639980793,9.89342915,9.893429150180788
8.363700071,3.87368083,9.231510162,-1.309472203,10.09657865,10.096578652902597
8.366206113,4.42672205,9.233902931,-1.019940615,10.29082651,10.290826512249303
8.368712103,4.974977493,9.202795982,-0.7779664397,10.49033301,10.490333012992076
8.371218144,5.484947681,9.164510727,-0.5602195859,10.69517433,10.695174328314211
8.373724186,5.966204166,9.162117958,-0.385543555,10.94023041,10.940230411627713
8.376230228,6.361020088,9.181260109,-0.2584248483,11.17250631,11.172506305716416
8.378736269,6.674778938,9.253045082,-0.1483550072,11.41023779,11.410237787568413
8.381242259,6.921239376,9.339486122,-0.04546362907,11.62461279,11.62461278772294
8.3837483,7.053143978,9.41366291,0.007178467698,11.76282028,11.762820277803526
8.386254342,7.081857681,9.478269577,0.04307080805,11.83182815,11.831828154715929
8.388760384,7.077072144,9.557232857,0.06460621208,11.89242717,11.892427169293091
8.391266425,6.995417118,9.62183857,0.05742774159,11.89617317,11.896173169025877
8.393772467,6.823133945,9.684052467,0.01674975827,11.84636272,11.846362714750136
8.396278509,6.557530403,9.74865818,-0.07896314561,11.74920323,11.749203227245449
8.398784498,6.262914181,9.782157898,-0.2512463629,11.61799604,11.617996036961157
8.40129054,5.867799282,9.786943436,-0.4286143482,11.41923993,11.419239926229158
8.403796582,5.427519798,9.803693771,-0.5985047817,11.22179089,11.221790885903369
8.406302623,4.948656559,9.794121742,-0.7540382147,10.99920888,10.999208883609711
8.408808665,4.433900356,9.760622978,-0.8883354068,10.75724747,10.757247467664442
8.411314655,3.900001764,9.746265411,-0.9936196208,10.54452385,10.544523847556931
8.413820696,3.35413909,9.724730492,-1.07497561,10.34293018,10.342930181490905
8.416326738,2.858525753,9.65055275,-1.194616675,10.13565227,10.135652266198008
8.41883278,2.367697954,9.566803932,-1.259222865,9.935561046,9.935561045982517
8.421338821,1.907976985,9.514162064,-1.18743825,9.775973892,9.775973892810347
8.423844811,1.503589988,9.432806015,-1.103689432,9.615442919,9.615442919124554
8.426350853,1.12283206,9.358628273,-1.029511929,9.481802033,9.481802033322152
8.428856894,0.8859425783,9.267701149,-1.036690354,9.367491966,9.367491965798392
8.431362936,0.7253243923,9.198010445,-1.113260746,9.293483798,9.293483798284631
8.433868978,0.6056832075,9.12861824,-1.20179522,9.227287515,9.227287514233153
8.436374967,0.5673980713,9.071190834,-1.280758262,9.178713714,9.178713714014716
8.438881009,0.5937191248,9.047262192,-1.321436286,9.16251327,9.162513270271614
8.44138705,0.660718143,9.032905579,-1.244866014,9.142189182,9.14218918292719
8.443893092,0.794716239,9.049654961,-1.161117196,9.158385335,9.158385335665294
8.446399134,1.019940615,9.123832703,-1.098903775,9.246198762,9.246198762581741
8.448905175,1.299900889,9.20758152,-0.9912267923,9.351568335,9.351568334907352
8.451411165,1.608874083,9.291629791,-0.8476574421,9.467913346,9.467913345985762
8.453917207,1.917548299,9.428020477,-0.6750751138,9.644702588,9.64470258758668
8.456423248,2.250449657,9.569196701,-0.5482555032,9.845538749,9.845538748992347
8.45892929,2.580958366,9.731908798,-0.4501497746,10.07839421,10.078394205387465
8.461435332,2.863311291,9.873384476,-0.3448655605,10.28597126,10.285971262593769
8.463941373,3.143570662,10.00259686,-0.2033899277,10.48691317,10.486913173730333
8.466447363,3.342175007,10.10070229,0.0382851623,10.63935084,10.639350839326571
8.468953405,3.483351469,10.17966557,0.3520440459,10.76490889,10.764908898076264
8.471459446,3.598206997,10.16770172,0.6511468887,10.80524151,10.80524151191515
8.473965488,3.614956856,10.09352398,0.8548358679,10.75536535,10.755365347891479
8.47647153,3.579064369,9.954740524,0.8883354068,10.61582312,10.61582311705445
8.478977519,3.547957659,9.784550667,0.7612167001,10.43575039,10.435750388431972
8.481483561,3.457030535,9.597910881,0.6152545214,10.2200534,10.220053401310764
8.483989603,3.349353552,9.439984322,0.4740779996,10.02777259,10.027772592435749
8.486495644,3.239283562,9.303593636,0.3281157911,9.856849015,9.856849015341176
8.489001686,3.081058264,9.183652878,0.2344966233,9.689550499,9.689550499176908
8.491507675,2.920739174,9.12861824,0.1603191197,9.585827587,9.585827586303662
8.494013717,2.717349291,9.09990406,0.1052841991,9.497543148,9.497543147208273
8.496519759,2.530709028,9.085547447,0.01674975827,9.431433674,9.431433674181832
8.4990258,2.295913219,9.087940216,-0.04307080805,9.373565489,9.37356548882415
8.501531842,2.054238319,9.102297783,-0.07417750359,9.331517685,9.33151768490493
8.504037884,1.800299883,9.121439934,0.01914258115,9.297425051,9.297425050879024
8.506543873,1.486840129,9.126225471,0.1531406492,9.247817958,9.247817957506047
8.509049915,1.146760225,9.12861824,0.2679961324,9.204268136,9.204268135614265
8.511555957,0.8811569214,9.090332985,0.3352942765,9.1390926,9.139092599933749
8.514061998,0.6224330068,9.044869423,0.3903291821,9.074659365,9.07465936536867
8.51656804,0.4022932947,8.985049248,0.4357928336,9.004602449,9.004602449734415
8.51907403,0.2273181528,8.918049812,0.4262215197,8.931122594,8.931122593255623
8.521580071,0.1268195957,8.863015175,0.4142574072,8.873597376,8.873597376574725
8.524086113,0.02871387079,8.829515457,0.4046861231,8.838831289,8.83883128869464
8.526592155,-0.01674975827,8.805587769,0.4070789516,8.815008212,8.815008212406854
8.529098196,-0.01196411345,8.779266357,0.4597210586,8.791302768,8.791302768013567
8.531604238,0.01674975827,8.786444664,0.5267201066,8.802234061,8.802234060659424
8.534110228,0.04307080805,8.824729919,0.5721837282,8.843365166,8.843365165852685
8.536616269,0.08614161611,8.870193481,0.5865406394,8.889982154,8.889982153529257
8.539122311,0.0933200866,8.930013657,0.6535396576,8.954382538,8.954382537999226
8.541628353,0.1411765367,8.98026371,0.684646368,9.007430697,9.00743069720068
8.544134394,0.2177468538,9.013762474,0.7085745931,9.044191815,9.044191814862025
8.546640384,0.308973223,9.054440498,0.7157530785,9.087940342,9.087940341669047
8.549146425,0.4142574072,9.114261627,0.7923234105,9.158010188,9.15801018735244
8.551652467,0.555433929,9.154939651,0.9122636318,9.217030531,9.217030530319475
8.554158509,0.6870391965,9.181260109,1.003190875,9.261422784,9.261422783693947
8.55666455,0.8452646136,9.226723671,0.9888339639,9.317976957,9.317976957266973
8.559170592,1.017547846,9.29402256,0.8811569214,9.390990176,9.390990175951593
8.561676634,1.158724308,9.363413811,0.7396813035,9.463788282,9.463788282116369
8.564182623,1.3310076,9.466305733,0.5769693851,9.576816753,9.576816753662415
8.566688665,1.424626827,9.60030365,0.5027918816,9.718445938,9.718445937731726
8.569194707,1.45334065,9.760622978,0.4453641176,9.878274605,9.878274604446348
8.571700748,1.455733418,9.940383911,0.4525425732,10.05659917,10.056599169844052
8.57420679,1.381256819,10.11984539,0.5315057039,10.22749429,10.227494288965234
8.576712832,1.252044439,10.28734303,0.6008976102,10.38066085,10.380660857193268
8.579218821,1.113260746,10.43121147,0.6726822853,10.51199428,10.511994276891539
8.581724863,0.9170492887,10.55085278,0.7827520967,10.61951856,10.61951856856172
8.584230905,0.7109674215,10.62024403,0.8572286963,10.6784783,10.678478307743346
8.586736946,0.4286143482,10.67288589,0.9720842242,10.72563058,10.72563057444095
8.589242988,0.1579262912,10.71834946,0.9984052777,10.76590771,10.765907716429382
8.591748978,-0.1363908947,10.73749256,1.036690354,10.78828419,10.788284193618978
8.594255019,-0.4501497746,10.76859951,1.12283206,10.83633342,10.836333423317525
8.596761061,-0.7636095285,10.82124138,1.199402332,10.91425355,10.914253546177463
8.599267103,-1.036690354,10.88106155,1.297508121,11.00707748,11.007077480831413
8.601773144,-1.256830096,10.93609715,1.340578914,11.08940911,11.089409118123061
8.604279186,-1.494018674,10.98425198,1.39561379,11.17289672,11.172896724181818
8.606785175,-1.699801445,11.05842972,1.431805253,11.27955048,11.279550483380167
8.609291217,-1.843370795,11.15414238,1.417448282,11.39394873,11.39394873401297
8.611797259,-2.037488461,11.25224876,1.417448282,11.52274364,11.522743641068063
8.6143033,-2.202593327,11.35992527,1.386042476,11.65420239,11.654202385809409
8.616809342,-2.334198475,11.45563793,1.376471281,11.77177965,11.771779648437393
8.619315384,-2.472982168,11.53729343,1.43659091,11.88648703,11.886487030904537
8.621821373,-2.64077878,11.62104225,1.553839207,12.01818422,12.01818421486348
8.624327415,-2.734098911,11.7023983,1.714158297,12.1391829,12.139182900597067
8.626833457,-2.84656167,11.79093266,1.893620014,12.27659574,12.27659574520515
8.629339498,-2.937488794,11.84836006,2.090130568,12.38471325,12.384713251325877
8.63184554,-2.987738132,11.89621735,2.367697954,12.4920999,12.49209990294761
8.634351582,-2.980559587,11.92014503,2.681456804,12.57631916,12.576319158625436
8.636857571,-2.961417198,11.86989594,2.999702215,12.59613571,12.596135710038794
8.639363613,-2.923131943,11.78853989,3.251247883,12.57318519,12.57318519274333
8.641869655,-2.901596546,11.67129135,3.330210924,12.47912694,12.479126936235279
8.644375696,-2.903989315,11.52293682,3.265604734,12.32377382,12.323773820468675
8.646881738,-2.961417198,11.40299606,3.100499868,12.18242219,12.18242218922221
8.64938778,-3.095714331,11.35035419,2.925524712,12.12322904,12.123229037600998
8.651893769,-3.256033421,11.38146114,2.801098108,12.16493165,12.16493164512815
8.654399811,-3.452244759,11.48913765,2.753241539,12.30847744,12.30847743584744
8.656905853,-3.69900465,11.67129135,2.779562712,12.55498491,12.554984908284329
8.659411894,-3.952643871,11.88664532,2.801098108,12.83596047,12.835960468351129
8.661917936,-4.211368084,12.18844032,2.817847729,13.19977138,13.199771376693082
8.664423925,-4.472185612,12.48993587,2.793919563,13.55746764,13.557467636303123
8.666929967,-4.735395908,12.83240891,2.705385208,13.94323498,13.943234989148527
8.669436009,-4.991727352,13.16261864,2.523231506,14.3016981,14.301698103779543
8.67194205,-5.254937649,13.47398472,2.14995122,14.62138585,14.621385850118676
8.674448092,-5.537590027,13.83320713,1.632802367,14.98961528,14.989615284532606
8.676954134,-5.843871117,14.24477196,1.115653515,15.43726143,15.43726143427133
8.679460175,-6.198307991,14.69731522,0.7157530785,15.96691576,15.966915766569333
8.681966165,-6.576673031,15.22403526,0.5147559643,16.59183087,16.591830865133254
8.684472207,-6.923632145,15.75554085,0.579362154,17.2194486,17.219448599208498
8.686978248,-7.316354275,16.27986717,0.9409775138,17.87312378,17.873123779340638
8.68948429,-7.721040249,16.78744507,1.489233017,18.53781512,18.537815121633624
8.691990332,-8.178368568,17.25673866,2.226521492,19.22597565,19.225975646711063
8.694496373,-8.606683731,17.63958931,3.061915636,19.86467828,19.86467828163617
8.697002363,-9.018548965,17.9461689,4.012464523,20.48167657,20.48167657126153
8.699508405,-9.404091835,18.13520241,5.015655518,21.03519218,21.035192178062633
8.702014446,-9.72712326,18.21416664,6.076273918,21.52426301,21.524263007859037
8.704520488,-9.988240242,18.21655846,7.120142937,21.96142938,21.96142938658176
8.70702653,-10.17488003,18.11845398,8.127820015,22.31295624,22.312956246237416
8.709532519,-10.25623608,17.95095634,8.894122124,22.50627958,22.506279577173707
8.712038561,-10.23709393,17.77149391,9.17886734,22.4694391,22.469439102259066
8.714544603,-10.12223816,17.65633965,8.829515457,22.18482315,22.184823154790397
8.717050644,-9.899705887,17.62283897,7.977072716,21.73021673,21.73021672989031
8.719556686,-9.533304214,17.63001823,7.244569778,21.31162179,21.311621789416062
8.722062728,-9.097511292,17.61566162,6.526423931,20.87272036,20.872720362845328
8.724568769,-8.673683167,17.6132679,5.324329376,20.34228279,20.34228278986422
8.727074811,-8.22383213,17.72842216,3.746861219,19.89892802,19.89892801585165
8.7295808,-7.735397339,17.94856262,2.288734913,19.67804817,19.67804816586886
8.732086842,-7.278069019,18.28146362,1.417448282,19.72793351,19.72793350472512
8.734592884,-6.902096748,18.63081551,1.055832982,19.89625616,19.896256164723248
8.737098925,-6.5790658,18.95414543,0.7995018363,20.0794158,20.07941580247211
8.739604967,-6.315556049,19.22692871,0.1770688742,20.238389,20.23838899748923
8.742110957,-5.999703884,19.42343903,-1.802692771,20.40872685,20.408726850894638
8.744616998,-5.664409637,19.49761581,-4.335794449,20.76154311,20.761543110137058
8.74712304,-5.37487793,19.3513546,-5.408377171,20.79939377,20.799393771000545
8.749629082,-5.113760948,19.04507446,-4.53918457,20.23535542,20.23535541523203
8.752135123,-4.848157883,18.67867279,-3.256033421,19.5703655,19.570365497175835
8.754641165,-4.484149456,18.34367752,-2.734098911,19.08070749,19.080707485746693
8.757147207,-4.04835701,18.09213257,-2.915953398,18.7674516,18.767451601913848
8.759653196,-3.358924866,17.86242104,-2.604886532,18.36120626,18.36120626511948
8.762159238,-2.324627161,17.55105591,-1.910369754,17.80710441,17.807104413424515
8.76466528,-1.165902853,17.23998833,-1.984846354,17.39299118,17.39299117834988
8.767171321,0.002392822644,16.8544445,-2.863311291,17.095931,17.09593099770669
8.769677363,1.158724308,16.34686661,-3.82821703,16.82908006,16.829080058513746
8.772183405,2.408375978,15.77229023,-4.510470867,16.58040293,16.580402932161107
8.774689394,3.823431492,15.18814278,-4.90319252,16.41156928,16.411569284132074
8.777195436,5.384449005,14.60638809,-5.1735816,16.40441437,16.404414366108835
8.779701478,7.182356358,14.01745415,-5.539982796,16.69630717,16.696307168970964
8.782207519,8.910871506,13.40459251,-5.892026424,17.14067405,17.140674045576652
8.784713561,10.59870911,12.73908901,-6.253343105,17.71218009,17.712180091449806
8.787219603,12.31286716,12.10229874,-6.610172749,18.48693366,18.486933663093893
8.789725644,13.92174149,11.50857925,-7.060322285,19.3935668,19.393566800255844
8.792231686,15.36042595,11.00339508,-7.445566654,20.30895988,20.308959881076095
8.794737675,16.68694687,10.51735306,-7.922037601,21.25623652,21.25623651972644
8.797243717,17.82174301,10.04088211,-8.41047287,22.11718543,22.117185430303014
8.799749759,18.84407616,9.545269012,-8.436793327,22.74622712,22.746227126225563
8.8022558,19.72014809,9.008976936,-7.677969456,22.99993741,22.99993741496223
8.804761842,20.44547272,8.412865639,-6.46421051,23.03431528,23.034315282241963
8.807267884,21.11606216,7.689933777,-5.398806095,23.11212388,23.112123872354058
8.809773873,21.81506538,6.780063152,-4.965405941,23.37780123,23.37780122333366
8.812279915,22.47099686,5.626124382,-5.063511848,23.71156105,23.711561055289064
8.814785957,23.06232452,4.290330887,-5.343770981,24.05896174,24.058961733273467
8.817291998,23.48615265,3.052344322,-5.377270699,24.28644091,24.28644091524058
8.81979804,23.605793,2.346162558,-5.073082924,24.25848537,24.258485366180437
8.822304082,23.42154694,2.293520451,-4.536791801,23.966885,23.966885007597448
8.824810123,22.91636086,2.702992201,-3.926322937,23.40687449,23.40687449682292
8.827316113,22.13570404,3.332603693,-3.413959742,22.64400057,22.64400057059411
8.829822155,21.26441574,4.041178226,-3.037987471,21.85716967,21.857169672485256
8.832328196,20.37608147,4.735395908,-2.870489836,21.11512212,21.11512212553268
8.834834238,19.61007881,5.377270699,-2.858525753,20.53390856,20.533908555978797
8.83734028,18.93261147,5.927918911,-2.944667339,20.0562974,20.05629740073527
8.839846321,18.37717628,6.358626842,-3.131606579,19.6966927,19.696692694653933
8.842352363,17.90309906,6.607779503,-3.397209883,19.38362043,19.38362042812417
8.844858353,17.43141365,6.729813576,-3.732504129,19.05455745,19.05455745164716
8.847364394,16.92862129,6.686742783,-4.045963764,18.64565823,18.645658223989972
8.849870436,16.37318802,6.535995007,-4.26879549,18.13899478,18.13899477934885
8.852376478,15.81296825,6.258128643,-4.433900356,17.57480047,17.574800464152702
8.854882519,15.22642803,5.889334679,-4.610969067,16.96435703,16.96435702438712
8.857388561,14.63270855,5.470590591,-4.797908306,16.34207591,16.342075909637813
8.85989455,14.04377556,5.013262749,-4.960620403,15.71522161,15.715221606863336
8.862400592,13.42612743,4.491328239,-5.034798145,15.02604804,15.026048032597682
8.864906634,12.87308693,3.964607954,-5.101797104,14.40356959,14.403569593216803
8.867412675,12.32722378,3.423531055,-5.142475128,13.78862072,13.788620723221214
8.869918717,11.8148613,2.884846687,-5.226223946,13.23732241,13.237322413519903
8.872424759,11.34556866,2.348555326,-5.25254488,12.72111898,12.721118978080167
8.8749308,10.89302635,1.845763564,-5.23818779,12.22716147,12.227161466149425
8.87743679,10.49342442,1.386042476,-5.166403294,11.77814895,11.778148954728948
8.879942832,10.10309505,0.9577272534,-5.099404335,11.35753916,11.357539154810622
8.882448873,9.782157898,0.5817549825,-5.027619362,11.01390069,11.013900691863197
8.884954915,9.49980545,0.2512463629,-4.986941338,10.73214854,10.732148537519103
8.887460957,9.26530838,-0.0239282269,-4.951049328,10.5052083,10.50520829802199
8.889966998,9.061619759,-0.2297109663,-4.929513931,10.31822792,10.318227918623467
8.89247304,8.884550095,-0.3640081584,-4.850550652,10.12894733,10.128947327218356
8.89497903,8.712266922,-0.4740779996,-4.718646049,9.919373237,9.919373236531802
8.897485071,8.6090765,-0.5027918816,-4.560719967,9.75546844,9.75546843962132
8.899991113,8.551649094,-0.4836492836,-4.39800787,9.628452216,9.628452216271302
8.902497155,8.527720451,-0.4142574072,-4.290330887,9.555132883,9.555132882894403
8.905003196,8.599505424,-0.3281157911,-4.254438877,9.599968941,9.599968940986404
8.907509238,8.72423172,-0.1890329868,-4.256831646,9.709200185,9.70920018522328
8.91001528,8.925228119,-0.06221338734,-4.249652863,9.885500338,9.885500338260917
8.912521321,9.140582085,0.07417750359,-4.228117466,10.07138126,10.07138125884211
8.915027311,9.34427166,0.1698904037,-4.165605068,10.23213278,10.232132778052472
8.917533353,9.516554832,0.2464607358,-4.079463482,10.35700638,10.357006375672713
8.920039394,9.65055275,0.2994019389,-3.971786499,10.44020584,10.440205835863022
8.922545436,9.767801285,0.3424727321,-3.895216227,10.52140385,10.521403849798933
8.925051478,9.856635094,0.375972271,-3.79471755,10.56856148,10.568561482487164
8.927557519,9.897313118,0.3879363835,-3.696611881,10.57223917,10.572239166426774
8.930063509,9.918848038,0.3879363835,-3.567100286,10.54790242,10.547902421285514
8.93256955,9.921240807,0.3735794425,-3.430709362,10.50430138,10.504301379761296
8.935075592,9.916455269,0.332901448,-3.294318676,10.45463744,10.45463744063852
8.937581634,9.866206169,0.2826521695,-3.167499065,10.36604875,10.366048752775216
8.940087675,9.830313683,0.2249253243,-3.045166016,10.29362398,10.293623976651263
8.942593717,9.772586823,0.1483550072,-2.915953398,10.19942384,10.1994238386559
8.945099759,9.703194618,0.09092725813,-2.741277456,10.08339505,10.083395045907357
8.947605748,9.652945518,0.01196411345,-2.55942297,9.986498198,9.986498197709272
8.95011179,9.588339806,-0.06939185411,-2.401197433,9.88467625,9.884676250489276
8.952617832,9.511769295,-0.1196411327,-2.236092806,9.771805368,9.771805368455897
8.955123873,9.444769859,-0.2009970993,-2.114058733,9.680564129,9.680564128705283
8.957629915,9.370592117,-0.2775674164,-2.063809633,9.599184887,9.599184887014788
8.960135957,9.291629791,-0.371186614,-2.054238319,9.523237829,9.523237828945543
8.962641998,9.229117393,-0.4692923427,-2.056631088,9.467131276,9.467131275567061
8.96514804,9.174081802,-0.5721837282,-2.059023857,9.419700122,9.419700121145024
8.96765403,9.12861824,-0.6535396576,-2.035095692,9.375521294,9.375521293843537
8.970160071,9.05922699,-0.7683951855,-1.994417667,9.307938904,9.30793890439155
8.972666113,8.992227554,-0.8428717852,-1.955833435,9.240988782,9.24098878122179
8.975172155,8.997013092,-0.9242277741,-1.958226204,9.253923029,9.253923028752157
8.977678196,9.004191399,-1.000798106,-1.955833435,9.268351742,9.268351742584152
8.980184238,9.008976936,-1.084546804,-1.98963201,9.28959325,9.289593249365831
8.982689945,9.025727272,-1.134796143,-2.025524378,9.319563513,9.319563513414376
8.985195934,9.054440498,-1.173081279,-2.039881229,9.355219284,9.35521928376825
8.987701976,9.03051281,-1.189831018,-2.013560295,9.328466354,9.328466354367661
8.990208018,9.023334503,-1.204187989,-2.008774519,9.322328536,9.322328536050732
8.992714059,9.018548965,-1.206580877,-2.042274237,9.325285353,9.325285352521853
8.995220101,8.975478172,-1.223330617,-2.082952023,9.294860695,9.294860695279832
8.997726143,8.870193481,-1.244866014,-2.049452543,9.188595079,9.188595078095252
9.000232184,8.793622971,-1.28315115,-2.066202402,9.123786176,9.123786176575805
9.002738226,8.731410027,-1.311864972,-2.073380709,9.06958755,9.069587550093447
9.005244215,8.707481384,-1.307079315,-2.037488461,9.037701457,9.03770145651623
9.007750257,8.690432549,-1.326221943,-1.994417667,9.014443097,9.014443097676919
9.010256299,8.71705246,-1.309472203,-2.00638175,9.040314639,9.040314638747635
9.01276234,8.755337715,-1.278365493,-2.003988981,9.07227252,9.072272519791497
9.015268382,8.827122688,-1.199402332,-2.00638175,9.131387005,9.131387004707687
9.017774424,8.898907661,-1.094118118,-2.018345833,9.190286825,9.19028682450819
9.020280465,8.989834785,-0.9912267923,-2.128415823,9.291383855,9.291383854462483
9.022786455,9.111868858,-0.8258228898,-2.224128723,9.415672367,9.41567236617659
9.025292497,9.270093918,-0.6487540603,-2.27677083,9.567612476,9.567612476037855
9.027798538,9.308379173,-0.4549354017,-2.228914261,9.582324762,9.58232476129615
9.03030458,9.310771942,-0.2703889608,-2.07098794,9.542147316,9.542147315656074
9.032810622,9.29402256,-0.1052841991,-1.97527504,9.502191936,9.502191936180624
9.035316663,9.341878891,0.1052841991,-1.972882271,9.548510378,9.548510377640987
9.037822705,9.396913528,0.3520440459,-2.032702923,9.620696443,9.620696442365064
9.040328747,9.377771378,0.579362154,-2.056631088,9.618107296,9.61810729591075
9.042834736,9.291629791,0.8018946648,-2.00638175,9.539548572,9.53954857177039
9.045340778,9.37298584,1.084546804,-1.898405671,9.624606455,9.624606455257902
9.04784682,9.569196701,1.393221021,-1.819442511,9.839764294,9.839764294261297
9.050352861,9.798908234,1.66151619,-1.62801671,10.07123016,10.071230164981056
9.052858903,10.03848934,1.893620014,-1.386042476,10.30913084,10.309130842704016
9.055364945,10.14855862,2.13559413,-1.113260746,10.43040525,10.430405257718956
9.057870986,10.27298546,2.329412937,-0.9481559992,10.57636018,10.576360181615096
9.060376976,10.2969141,2.525923491,-0.8234301209,10.63413215,10.63413215213963
9.062883018,10.34477043,2.791526794,-0.8090731502,10.74530114,10.745301133676845
9.065389059,10.32802105,3.081058264,-0.8931210637,10.81474013,10.81474012955607
9.067895101,10.32084274,3.425923824,-1.113260746,10.9314271,10.93142709806208
9.070401143,10.10070229,3.797110319,-1.443769336,10.88699698,10.886996988216787
9.072907184,9.779765129,4.213760853,-1.845763564,10.80770233,10.807702329305227
9.075413226,9.349057198,4.685146809,-2.324627161,10.71257964,10.712579640358218
9.077919268,8.848658562,5.147260666,-2.805883646,10.61442574,10.61442573790485
9.080425257,8.087141991,5.671587944,-2.822633505,10.27307331,10.273073312921998
9.082931299,7.287640572,6.253343105,-2.669492722,9.966955226,9.96695522656355
9.08543734,6.401698112,6.969096184,-2.207378864,9.71712724,9.717127239480897
9.087943382,5.420341492,7.740182877,-1.529910922,9.572416637,9.572416637848338
9.090449424,4.220939159,8.405686378,-0.8476574421,9.444067663,9.444067662211125
9.092955465,3.002095222,9.071190834,-0.2994019389,9.559744787,9.559744786855866
9.095461507,1.874477386,9.751050949,0.1698904037,9.931038356,9.931038356077805
9.097967549,0.6990033388,10.30648518,0.5386841893,10.34419755,10.344197556553866
9.100473538,-0.4070789516,10.7614212,0.8452646136,10.80223921,10.802239202297343
9.10297958,-1.539482236,11.06560802,1.2352947,11.24026866,11.240268653510734
9.105485622,-2.75084877,11.18046379,1.855334878,11.66242715,11.662427149801834
9.107991663,-3.928715706,11.13500023,2.717349291,12.11639486,12.116394859444343
9.110497705,-5.077868938,10.86431217,3.852145433,12.59591427,12.595914270734701
9.113003747,-6.109773636,10.45274639,4.979763031,13.09149651,13.09149650810529
9.115509788,-7.03400135,9.954740524,5.892026424,13.53846407,13.538464066247833
9.118015778,-7.843074322,9.317950249,6.614958286,13.85985876,13.859858757894143
9.12052182,-8.621041298,8.577970505,7.101000309,14.08290227,14.082902273142762
9.123027861,-9.305986404,7.795217991,7.225427151,14.1270522,14.127052204655113
9.125533903,-9.705587387,7.067500591,6.997809887,13.8966663,13.896666303292807
9.128039945,-9.894919395,6.382555485,6.533602238,13.46604629,13.466046285270572
9.130545986,-9.880562782,5.762515068,5.903990746,12.87203199,12.87203198903826
9.133052028,-9.796515465,5.199902534,5.348556995,12.31331651,12.313316512940258
9.13555807,-9.712766647,4.754538536,4.963013172,11.89852816,11.898528160021733
9.138064059,-9.669695854,4.503292084,4.706682205,11.65913869,11.659138685235094
9.140570101,-9.633803368,4.469792843,4.431507587,11.50771371,11.50771371238704
9.143076143,-9.605089188,4.675575256,3.990929127,11.4037826,11.40378259967678
9.145582184,-9.514162064,5.132903576,3.3852458,11.32810081,11.328100812889511
9.148088226,-9.404091835,5.731408596,3.00688076,11.41609914,11.416099142889156
9.150594268,-9.370592117,6.430411816,3.215355396,11.81087224,11.810872239979624
9.153100309,-9.490233421,7.165606499,4.09860611,12.57811667,12.578116668583803
9.155606299,-9.746265411,7.914859295,5.384449005,13.6611485,13.66114849523086
9.15811234,-10.15334511,8.649754524,6.567101955,14.86726264,14.867262637606972
9.160618382,-10.63460159,9.29402256,7.208677292,15.85681666,15.856816661108748
9.163124424,-11.09910774,9.803693771,7.089035988,16.41819221,16.41819220921814
9.165630465,-11.54447174,10.09591675,6.219843388,16.54958654,16.549586537126434
9.168136507,-11.67607689,10.17009449,4.821836948,16.21763562,16.217635617740903
9.170642549,-11.55165005,9.969097137,3.387638569,15.63008674,15.630086745721629
9.17314859,-11.30010509,9.533304214,2.26241374,14.9564294,14.956429393831097
9.175654632,-10.8619194,8.932407379,1.527518153,14.14575931,14.145759306034249
9.178160622,-10.23230743,8.264510155,1.132403374,13.20168856,13.201688560391734
9.180666663,-9.401699066,7.567600727,0.9194421172,12.10396216,12.103962156987993
9.183172705,-8.475078583,6.921239376,0.8668000102,10.97642263,10.976422629691374
9.185678747,-7.395317554,6.351448536,0.789930582,9.780368631,9.780368630799963
9.188184788,-6.246164322,5.805585861,0.6678966284,8.553682355,8.553682355167096
9.19069083,-5.152046204,5.319543839,0.6583253145,7.434683514,7.434683514643054
9.193196872,-3.981357813,4.936692238,0.7109674215,6.381819095,6.381819095077825
9.195702913,-2.580958366,4.730610371,0.6774678826,5.43129665,5.431296650082066
9.198208903,-0.950548768,4.953442097,0.3520440459,5.056092026,5.056092026351154
9.200714945,0.8330013752,5.968596935,-0.555433929,6.051987072,6.051987071455198
9.203220986,2.662314177,7.086643219,-1.838585138,7.790303216,7.790303216186668
9.205727028,4.457828522,8.156833649,-3.684647799,9.999139948,9.999139948600124
9.20823307,6.160022736,9.05922699,-5.135296345,12.0990389,12.09903890048097
9.210739111,7.814360619,10.00498962,-5.324329376,13.76635509,13.766355090735614
9.213245153,9.332307816,11.19242764,-4.421936035,15.22878603,15.228786029977641
9.215751195,10.61545849,12.69841099,-2.944667339,16.81096863,16.810968632450635
9.218257184,11.40060329,14.58485222,-0.9936196208,18.53858003,18.538580032085427
9.220763226,11.56361485,16.78983879,1.752443433,20.4618409,20.461840899078314
9.223269268,11.05125141,19.26760674,5.640480995,22.91693376,22.91693376237922
9.225775309,9.897313118,21.829422,10.68485069,26.24207511,26.242075109972006
9.228281351,8.053643227,24.11576462,15.85843182,29.96533217,29.965332172773177
9.230787393,5.666802406,25.74617386,19.45215225,32.76223962,32.762239622699404
9.233293434,2.990130901,26.23939323,19.85653877,33.04131916,33.04131915962494
9.235799476,0.1627119333,25.3678093,16.73241043,30.389567,30.389567003371035
9.238305518,-2.147558212,23.36411858,11.03210926,25.92684859,25.92684859405029
9.240811507,-3.342175007,20.88126564,4.543970108,21.62972614,21.629726138998098
9.243317549,-4.52482748,18.43221283,0.0143569354,18.97948207,18.979482070271935
9.24582359,-6.143272877,16.38515282,-2.21216464,17.63821722,17.638217227670832
9.248329632,-8.161619186,14.83131313,-2.413161755,17.09980195,17.099801944852707
9.250835674,-10.22034359,13.76860046,-1.256830096,17.19329531,17.19329530994503
9.253341715,-12.26501083,13.15543938,0.8114659786,18.00429263,18.004292626351564
9.255847757,-13.57687569,12.82044506,2.868097067,18.8923621,18.892362102816193
9.258353799,-13.96481228,12.6433754,4.443471432,19.35498287,19.354982869740912
9.260859788,-13.17697525,12.52104282,5.247759342,18.91951818,18.91951817967187
9.26336583,-11.30967617,12.29372501,5.358128071,17.54291841,17.542918403646627
9.265871872,-8.298009872,11.78614712,4.821836948,15.19935338,15.199353385035552
9.268377913,-4.891228676,11.01296616,3.84257412,12.64811912,12.64811912775665
9.270883955,-1.706979871,9.99302578,2.48733902,10.43844816,10.438448156702142
9.273389997,1.07497561,8.817551613,0.7827520967,8.917257978,8.91725797848767
9.275896038,3.428316593,7.656434059,-0.9936196208,8.447580548,8.447580547854699
9.27840208,5.370092392,6.69152832,-2.552244425,8.95144654,8.951446540136509
9.28090807,7.024429798,5.925526142,-3.583850145,9.863997968,9.863997967780216
9.283414111,8.434400558,5.391627789,-3.943072557,10.75902338,10.759023384010012
9.285920153,9.719944954,5.106582642,-3.684647799,11.58150014,11.58150014424044
9.288426195,10.84038353,5.065904617,-2.944667339,12.32267708,12.322677079409754
9.290932236,11.83639622,5.278865814,-2.331805706,13.16829592,13.168295926564769
9.293438278,12.59043407,5.626124382,-2.55942297,14.02579594,14.025795933640104
9.29594432,13.30648708,6.047560215,-3.84257412,15.11294012,15.112940112101004
9.298450361,14.01745415,6.408876419,-5.899205208,16.50343418,16.503434184661714
9.300956403,14.72363567,6.636493683,-8.168797493,18.09855653,18.098556523353963
9.303462445,15.40349674,6.782455921,-9.940383911,19.54688345,19.546883445643356
9.305968434,16.05254936,6.995417118,-10.53888798,20.43742551,20.437425509712135
9.308474476,16.60080528,7.328318596,-9.724730492,20.58789384,20.58789383426556
9.310980518,17.07458496,7.792825222,-7.816753387,20.33153241,20.331532406832334
9.313486559,17.34527206,8.329116821,-5.518447399,20.01714045,20.017140443849907
9.315992601,17.31416512,8.839086533,-3.567100286,19.76446227,19.764462274265593
9.318498643,16.9669075,9.226723671,-2.444268227,19.46748127,19.4674812695446
9.321004684,16.28704643,9.418449402,-2.142772675,18.93585344,18.93585343436457
9.323510726,15.40110397,9.420842171,-2.39162612,18.21170355,18.211703550286227
9.326016715,14.30698586,9.296415329,-2.825026274,17.29433305,17.29433305497198
9.328522757,13.03340626,9.152546883,-3.232105255,16.25070145,16.2507014483412
9.331028799,11.66172028,9.085547447,-3.476173162,15.1863976,15.18639760288333
9.33353484,10.277771,9.114261627,-3.524029493,14.181718,14.18171800598854
9.336040882,8.97308445,9.195617676,-3.418745279,13.29524156,13.295241565036726
9.338546924,7.764111042,9.341878891,-3.222533941,12.56729273,12.567292727056003
9.341052965,6.636493683,9.538089752,-2.951845884,11.98881139,11.988811394153887
9.343559007,5.640480995,9.741479874,-2.600100994,11.55300745,11.553007451287437
9.346065049,4.737788677,9.937990189,-2.202593327,11.22772051,11.227720512584671
9.348571038,3.921537161,10.10548782,-1.919941068,11.00842911,11.008429110907027
9.35107708,3.162713289,10.2275219,-1.831406593,10.86089359,10.860893594556604
9.353583122,2.45383954,10.31605625,-1.917548299,10.77586825,10.775868249019625
9.356089163,1.797907114,10.35434151,-2.073380709,10.71185164,10.711851644824728
9.358595205,1.2352947,10.38066292,-2.169093609,10.67656699,10.676566992208482
9.361101247,0.8330013752,10.40249729,-2.173879385,10.65981204,10.659812040560116
9.363607288,0.6224330068,10.41924667,-2.121237278,10.6511864,10.651186394380534
9.36611333,0.5913262963,10.45035362,-2.082952023,10.67231216,10.672312153505572
9.368619372,0.7181459069,10.44556808,-2.133201361,10.68532518,10.685325175402212
9.371125413,0.9146564603,10.44556808,-2.260020971,10.72633133,10.726331327329172
9.373631403,1.103689432,10.40728283,-2.40598321,10.73864151,10.738641509647447
9.376137445,1.261615753,10.31605625,-2.523231506,10.69482997,10.694829970329256
9.378643486,1.381256819,10.17966557,-2.547458887,10.58409222,10.584092228341206
9.381149528,1.4054842,9.997811317,-2.484946251,10.39743117,10.397431165299526
9.38365557,1.388435364,9.763015747,-2.348555326,10.13705783,10.1370578253978
9.386161611,1.366899967,9.516554832,-2.200200319,9.862763956,9.862763955097723
9.388667653,1.400399446,9.320343018,-2.059023857,9.647253071,9.647253071482766
9.391173695,1.508375525,9.1860466,-1.927119493,9.506441943,9.506441942287932
9.393679736,1.704586983,9.126225471,-1.785943031,9.454268911,9.45426891092694
9.396185726,1.982453585,9.145368576,-1.647159338,9.501632622,9.501632622466952
9.398691768,2.32701993,9.202795982,-1.520339727,9.613423351,9.613423351045505
9.401197809,2.731706142,9.286844254,-1.374078393,9.777309756,9.777309756492468
9.403703851,3.179463148,9.339486122,-1.175474167,9.935629142,9.93562914212306
9.406209893,3.653541088,9.351449966,-0.9194421172,10.08183281,10.081832807341474
9.408715934,4.179962158,9.317950249,-0.6487540603,10.23314039,10.23314039363806
9.411221976,4.756931305,9.26530838,-0.423828721,10.42372129,10.42372129336408
9.413728018,5.346164227,9.17886734,-0.3376871049,10.62765779,10.627657793144683
9.416234059,5.939883232,9.104690552,-0.385543555,10.87778685,10.877786847069345
9.418740101,6.502495766,9.023334503,-0.5003990531,11.13343684,11.13343684368046
9.42124609,7.053143978,8.989834785,-0.6415755749,11.44445668,11.444456677986155
9.423752132,7.534101009,9.028120041,-0.737288475,11.78190238,11.78190238390594
9.426258174,7.926823139,9.114261627,-0.7564310431,12.10274671,12.102746713261244
9.428764215,8.216653824,9.198010445,-0.742074132,12.35586785,12.355867845973687
9.431270257,8.376973152,9.317950249,-0.7348956466,12.55141218,12.551412177263545
9.433776299,8.405686378,9.428020477,-0.7755736113,12.65482706,12.654827064269625
9.43628234,8.305188179,9.55005455,-0.8572286963,12.68520925,12.685209246769926
9.438788382,8.060821533,9.664909363,-0.9864411354,12.62380224,12.62380223607336
9.441294424,7.670791149,9.741479874,-1.115653515,12.44918269,12.449182694163326
9.443800413,7.17757082,9.779765129,-1.278365493,12.19817803,12.19817802740282
9.446306455,6.574280262,9.794121742,-1.450947881,11.88491613,11.8849161298605
9.448812497,5.884549141,9.794121742,-1.577767372,11.53438725,11.534387247275372
9.451318538,5.15922451,9.767801285,-1.654337764,11.16979735,11.16979735381215
9.45382458,4.419543266,9.715159416,-1.673480392,10.80357449,10.803574490914935
9.456330622,3.679862022,9.672088623,-1.680658817,10.48404964,10.484049641778878
9.458836663,2.968595505,9.640981674,-1.673480392,10.22553781,10.225537811436547
9.461342705,2.293520451,9.605089188,-1.62801671,10.0084171,10.00841709645581
9.463848747,1.690230131,9.578767776,-1.568196177,9.852355519,9.852355517937509
9.466354788,1.180259824,9.530911446,-1.525125384,9.72405747,9.724057470036026
9.468860778,0.7875377536,9.497411728,-1.5011971,9.647519784,9.64751978373435
9.47136682,0.4860421121,9.473484039,-1.479661703,9.60065287,9.600652869844179
9.473872861,0.3281157911,9.451948166,-1.424626827,9.56433718,9.564337180449463
9.476378903,0.2970091105,9.475876808,-1.335793257,9.574173558,9.574173557940076
9.478884945,0.3975076675,9.490233421,-1.26640141,9.582604827,9.582604826561337
9.481390986,0.6176473498,9.516554832,-1.194616675,9.61110884,9.611108839221705
9.483897028,1.005583763,9.566803932,-1.127617717,9.6853734,9.685373399793741
9.48640307,1.505982757,9.62183857,-1.053440213,9.7957898,9.795789800413566
9.488909111,2.027917147,9.660123825,-0.9170492887,9.913194221,9.91319422120511
9.491415153,2.475374937,9.741479874,-0.7013961077,10.07550831,10.07550831046114
9.493921195,2.870489836,9.80608654,-0.4860421121,10.22913887,10.229138872030388
9.496427184,3.19382,9.880562782,-0.2488535494,10.38691172,10.386911724400692
9.498933226,3.478565931,9.916455269,-0.007178467698,10.50887994,10.508879938832218
9.501439268,3.653541088,9.9140625,0.2249253243,10.56823491,10.568234911143957
9.503945309,3.775574923,9.851848602,0.3687937856,10.55698327,10.556983268539028
9.506451351,3.866502285,9.751050949,0.4094717801,10.49764267,10.49764267198128
9.508957393,3.93828702,9.595518112,0.3352942765,10.37769217,10.37769216837126
9.511463434,3.981357813,9.444769859,0.2464607358,10.25259141,10.25259140992667
9.513969476,3.981357813,9.296415329,0.1435693651,10.11410699,10.114106988113065
9.516475518,3.90478754,9.198010445,0.0765703246,9.992828673,9.992828673277536
9.518981507,3.80907464,9.109476089,0.01914258115,9.87380224,9.873802239642384
9.521487549,3.706183195,9.018548965,-0.05024927482,9.750515079,9.750515078631638
9.52399359,3.605385542,8.941978455,-0.1172483116,9.642174586,9.642174586820126
9.526499632,3.421138287,8.886942863,-0.0933200866,9.523163827,9.523163826563469
9.529005674,3.174677372,8.891729355,-0.05264209956,9.441620546,9.441620545727499
9.531511715,2.970988512,8.910871506,-0.05742774159,9.393279602,9.393279601948555
9.534017757,2.803490877,8.918049812,-0.0933200866,9.348790413,9.348790412951747
9.536523799,2.65513587,8.894122124,-0.1387837082,9.2830176,9.283017600029028
9.53902984,2.425125837,8.903693199,-0.1674975902,9.229574386,9.229574386174402
9.541535882,2.123630047,8.937192917,-0.09810572863,9.186557927,9.186557927003248
9.544041872,1.891227245,8.958727837,-0.05982056633,9.156370648,9.156370648342333
9.546547913,1.611266971,8.992227554,0.0239282269,9.135475368,9.135475367751528
9.549053955,1.388435364,8.997013092,0.0933200866,9.103993957,9.103993957389704
9.551559997,1.134796143,9.042476654,0.2057827413,9.115727775,9.115727774616772
9.554066038,0.8258228898,9.097511292,0.3496512175,9.1416055,9.141605500528032
9.55657208,0.4214358926,9.183652878,0.4381856322,9.203754399,9.20375439934355
9.559078122,0.1004985496,9.260522842,0.4381856322,9.271428688,9.271428687852913
9.561584163,-0.1076770201,9.305986404,0.4286143482,9.316473987,9.316473987060414
9.564090205,-0.3257229924,9.368199348,0.4525425732,9.38477753,9.384777529180118
9.566596247,-0.6415755749,9.418449402,0.5338985324,9.45536123,9.455361230499937
9.569102288,-0.9146564603,9.449555397,0.5027918816,9.507023368,9.50702336788667
9.571608278,-1.182652593,9.49980545,0.5027918816,9.586332481,9.586332480139744
9.57411432,-1.354935765,9.538089752,0.5362913609,9.64876238,9.648762380132466
9.576620361,-1.537089467,9.509376526,0.6487540603,9.654624165,9.65462416531881
9.579126403,-1.668694735,9.437591553,0.7301099896,9.611749946,9.611749946642776
9.581632445,-1.821835399,9.361021042,0.7444669604,9.565669356,9.565669355823642
9.584138486,-1.821835399,9.245866776,0.6487540603,9.445952492,9.44595249254123
9.586644528,-1.752443433,9.159725189,0.5482555032,9.341959517,9.341959517181339
9.58915057,-1.738086581,9.087940216,0.4357928336,9.262910867,9.262910866809607
9.591656611,-1.671087503,9.061619759,0.3352942765,9.220515623,9.2205156228508
9.594162653,-1.572981834,9.078369141,0.2679961324,9.217531125,9.217531124836869
9.596668695,-1.417448282,9.097511292,0.2033899277,9.209518923,9.209518923532437
9.599174736,-1.232901812,9.147761345,0.1890329868,9.23240586,9.232405860511529
9.601680726,-1.072582722,9.245866776,0.2440679073,9.31107165,9.311071650376629
9.604186768,-0.8763712645,9.341878891,0.3017947674,9.387747754,9.38774775380031
9.606692809,-0.6559324861,9.418449402,0.385543555,9.449131198,9.449131198007441
9.609198851,-0.4166502357,9.514162064,0.4645066857,9.534602438,9.534602438488225
9.611704893,-0.1363908947,9.578767776,0.5482555032,9.595414462,9.59541446105806
9.614210934,0.1028913707,9.648159981,0.71336025,9.675043178,9.675043178167966
9.616716976,0.3496512175,9.719944954,0.9314061999,9.770726861,9.770726860981299
9.619223018,0.5913262963,9.77737236,1.127617717,9.859928944,9.859928943480279
9.621729059,0.7540382147,9.823135376,1.295115232,9.936794539,9.936794538914903
9.624235101,0.8763712645,9.880562782,1.374078393,10.01407204,10.014072044497901
9.62674109,0.9672985673,9.918848038,1.381256819,10.06116709,10.061167095286267
9.629247132,1.043868899,9.990633011,1.345364571,10.13471342,10.134713418132968
9.631753174,1.034297585,10.07916737,1.390828133,10.2271105,10.22711050406486
9.634259215,0.9433703423,10.18684387,1.398006678,10.32551008,10.32551007486896
9.636765257,0.8548358679,10.33041382,1.371685624,10.45608509,10.456085094555402
9.639271299,0.6128616929,10.46471119,1.407876968,10.57676214,10.576762136956674
9.64177734,0.3376871049,10.63460159,1.434198022,10.73618683,10.736186824247937
9.644283382,-0.01674975827,10.81645584,1.482054472,10.91753099,10.917530991531345
9.646789424,-0.371186614,10.98185921,1.479661703,11.08730851,11.087308508650757
9.649295465,-0.7061817646,11.10867882,1.398006678,11.21854984,11.218549838651285
9.651801507,-1.077368379,11.25942707,1.292722464,11.38448734,11.384487337497815
9.654307497,-1.422233939,11.41496086,1.240080357,11.5698695,11.569869493835816
9.656813538,-1.704586983,11.55404282,1.275972724,11.74860113,11.748601136365066
9.65931958,-1.934298038,11.66889858,1.393221021,11.90990209,11.909902089584657
9.661825622,-2.216950178,11.77896881,1.582553029,12.08980763,12.089807624949378
9.664331663,-2.492124796,11.87707424,1.75722909,12.26227681,12.262276810448045
9.666837705,-2.729313374,11.93928814,1.943869352,12.40057986,12.400579859066465
9.669343747,-2.956631422,11.9727869,2.157129526,12.51968464,12.519684633021326
9.671849788,-3.16032052,11.9727869,2.504088879,12.63351547,12.633515467037515
9.67435583,-3.332603693,11.92732334,2.899203777,12.71898864,12.718988637941187
9.676861872,-3.435495138,11.81007481,3.258426189,12.72390801,12.723908011699049
9.679367913,-3.509672642,11.66411304,3.509672642,12.67624302,12.676243020623444
9.681873955,-3.562314749,11.43410301,3.569493294,12.49680281,12.496802806724004
9.684379997,-3.62452817,11.17567825,3.44985199,12.24477307,12.244773070806726
9.686885986,-3.756432533,10.92413235,3.205784082,11.98851553,11.988515527608158
9.689392028,-3.931108475,10.73031425,2.966202736,11.80642268,11.80642267653601
9.69189807,-4.1129632,10.62742233,2.758027315,11.72455911,11.72455911047503
9.694404111,-4.342973232,10.62024403,2.549851656,11.75383951,11.753839509633655
9.696910153,-4.591826439,10.72552872,2.34137702,11.89974297,11.899742968620302
9.699416195,-4.833800793,10.89063358,2.164308071,12.11015109,12.110151085202313
9.701922236,-5.077868938,11.15653515,2.035095692,12.42556413,12.425564131269361
9.704428278,-5.321936607,11.43410301,1.992024899,12.76831563,12.768315632472973
9.70693432,-5.618945599,11.79571819,2.152343988,13.241756,13.241755997793424
9.709440361,-5.88694191,12.19322586,2.382055044,13.74790996,13.747909955965417
9.711946403,-6.081059456,12.56411362,2.525923491,14.18508106,14.185081058847079
9.714452393,-6.238986015,12.88744354,2.50169611,14.53511716,14.535117162198674
9.716958434,-6.413661957,13.20120239,2.257628202,14.84936663,14.849366630899667
9.719464476,-6.538387775,13.53859043,1.800299883,15.14216052,15.142160519433375
9.721970518,-6.667600155,13.94327641,1.297508121,15.50984771,15.509847716746913
9.724476559,-6.794419765,14.39342594,0.8811569214,15.94086848,15.940868475507182
9.726982601,-6.935596466,14.90100384,0.7013961077,16.45096867,16.450968672962183
9.729488643,-7.139285564,15.4540453,0.8572286963,17.04499209,17.04499209552621
9.731994684,-7.416852951,16.02862167,1.371685624,17.71462509,17.714625081774642
9.734500726,-7.759325504,16.5649128,2.183450699,18.42202283,18.422022834194735
9.737006768,-8.144868851,17.03151321,3.198605776,19.14790876,19.14790875611891
9.739512809,-8.566005707,17.40748596,4.369294167,19.88687388,19.88687388047035
9.742018851,-8.965906143,17.68774414,5.652445316,20.62023045,20.62023044918654
9.744524893,-9.349057198,17.87199211,7.009773731,21.3529834,21.352983403524565
9.747030882,-9.700801849,17.94377708,8.379365921,22.05217599,22.05217598443091
9.749536924,-9.957133293,17.9078846,9.554840088,22.60822424,22.608224241827088
9.752042965,-10.10070229,17.76670837,10.19880867,22.84066136,22.840661359582093
9.754549007,-10.16291618,17.56541252,10.26341438,22.7412897,22.74128969550912
9.757055049,-10.10070229,17.34527206,9.902098656,22.38155954,22.381559538597504
9.75956109,-9.887741089,17.23998833,8.968298912,21.80401355,21.80401354880829
9.762067132,-9.490233421,17.30220222,7.278069019,21.03333119,21.033331183912974
9.764573174,-8.932407379,17.56541252,5.429912567,20.4405374,20.44053739673815
