Time (s),Acceleration x (m/s^2),Acceleration y (m/s^2),Acceleration z (m/s^2),Absolute acceleration (m/s^2),magnitude
4.356509443,-7.467102051,9.064012527,2.484946251,12.00370335,12.003703345218936
4.359015589,-7.474280834,9.226723671,2.482553482,12.13096762,12.130967623297071
4.361521682,-7.495816231,9.418449402,2.434697151,12.28096903,12.28096903033489
4.364027776,-7.491030216,9.617053032,2.336591244,12.41220776,12.412207755224808
4.36653387,-7.502994537,9.774979591,2.24566412,12.5255004,12.52550040383911
4.369040016,-7.498209,9.99302578,2.123630047,12.67254935,12.672549349832764
4.371546109,-7.500601768,10.17248726,1.965703845,12.7907199,12.79071989933463
4.374052203,-7.486244678,10.38066292,1.785943031,12.92252354,12.922523536350155
4.376558297,-7.479066372,10.55085278,1.592124343,13.0304178,13.030417802418622
4.379064443,-7.459923744,10.74945641,1.39561379,13.15860985,13.158609851637948
4.381570536,-7.46949482,10.90977573,1.180259824,13.27439538,13.274395375950363
4.38407663,-7.450352192,11.06560802,0.9912267923,13.37676939,13.376769385427146
4.386582724,-7.424031258,11.18046379,0.7995018363,13.44463513,13.44463513322356
4.38908887,-7.400103092,11.30967617,0.5937191248,13.52859206,13.528592064278053
4.391594964,-7.342675209,11.40538883,0.4190430641,13.57104899,13.571048989592597
4.394101057,-7.299604416,11.48435211,0.2727817893,13.61062004,13.610620041758636
4.396607151,-7.266105175,11.55165005,0.1339980662,13.64752207,13.647522074485613
4.399113297,-7.208677292,11.62582779,0.0382851623,13.67941394,13.679413944193117
4.401619391,-7.146463871,11.67846966,-0.004785645287,13.69155295,13.691552956529424
4.404125484,-7.067500591,11.73350525,-0.03110669367,13.69765227,13.69765226898223
4.406631578,-6.993024349,11.81007481,-0.04067798331,13.725229,13.725229005806408
4.409137724,-6.897311211,11.85075283,-0.0382851623,13.71184562,13.711845620950944
4.411643818,-6.794419765,11.89861012,-0.02871387079,13.70189356,13.70189356319647
4.414149911,-6.669992924,11.93928814,-0.03349951655,13.6761299,13.676129902635608
4.416656005,-6.531209469,11.98235893,-0.04546362907,13.64681976,13.646819761280435
4.419162151,-6.372983932,11.98953724,-0.05503492057,13.57817942,13.578179416599236
4.421668245,-6.207879066,11.97039413,-0.1124626622,13.48483393,13.48483392467288
4.424174339,-5.997310638,11.91775227,-0.1674975902,13.3427362,13.342736207408167
4.426680432,-5.786443233,11.84836006,-0.2560320199,13.18833249,13.188332487291513
4.429186578,-5.578267574,11.73350525,-0.3592225015,12.99697101,12.996971008065739
4.431692672,-5.343770981,11.61147118,-0.4501497746,12.79002682,12.790026820961742
4.434198766,-5.09461832,11.48435211,-0.5410770178,12.57530292,12.575302920889516
4.436704911,-4.855336189,11.34317589,-0.6128616929,12.3538467,12.353846697863567
4.439211005,-4.615755081,11.20917797,-0.6678966284,12.14071463,12.140714626295223
4.441717099,-4.36211586,11.05603695,-0.7061817646,11.90641426,11.906414258729722
4.444223193,-4.096213341,10.88584709,-0.7277171612,11.65376347,11.653763463729339
4.446729339,-3.844966888,10.70160007,-0.71336025,11.39372184,11.393721835920012
4.449235432,-3.59102869,10.50778198,-0.6750751138,11.12495823,11.124958229174972
4.451741526,-3.315854073,10.30887794,-0.6200401783,10.84676461,10.846764606921072
4.45424762,-3.052344322,10.11266708,-0.5315057039,10.57664123,10.576641226979367
4.456753766,-2.791526794,9.928419113,-0.4381856322,10.32269997,10.3226999652838
4.459259859,-2.537887573,9.796515465,-0.3496512175,10.12594907,10.12594906974508
4.461765953,-2.300698996,9.707980156,-0.2416750938,9.979804679,9.979804678972853
4.464272047,-2.082952023,9.640981674,-0.1746760458,9.864974835,9.864974834711946
4.466778193,-1.83619225,9.614660263,-0.1459621787,9.789514743,9.789514743309912
4.469284286,-1.594517231,9.62183857,-0.2057827413,9.755234964,9.755234964044305
4.47179038,-1.364507079,9.688838005,-0.2874378264,9.788671103,9.788671102852472
4.474296474,-1.151545882,9.789336205,-0.3951148391,9.86474921,9.864749210646561
4.47680262,-0.9696913958,9.940383911,-0.5195416212,10.0010728,10.001072802320525
4.479308714,-0.7827520967,10.1270237,-0.6583253145,10.17854125,10.178541255256643
4.481814807,-0.5961119533,10.36869907,-0.7971090674,10.41636466,10.416364660015379
4.484320901,-0.4405784607,10.63699436,-0.9409775138,10.68761887,10.687618868400099
4.486827047,-0.318544507,10.91456127,-1.091725349,10.97364947,10.973649463928263
4.489333141,-0.2297109663,11.21396351,-1.220937729,11.28257212,11.282572121185206
4.491839234,-0.1555334777,11.51336479,-1.338186026,11.59191534,11.59191534175776
4.494345328,-0.1004985496,11.80528927,-1.434198022,11.89251355,11.892513555727298
4.496851474,-0.05264209956,12.11665535,-1.508375525,12.21029503,12.21029503270698
4.499357568,-0.03349951655,12.40857983,-1.577767372,12.50853011,12.508530109299002
4.501863661,-0.05264209956,12.70080376,-1.649552107,12.80758406,12.807584061577904
4.504369755,-0.09810572863,12.97119236,-1.718943954,13.08496176,13.08496176116329
4.506875901,-0.2129612118,13.18923855,-1.738086581,13.30497317,13.30497316681209
4.509381995,-0.4070789516,13.37348557,-1.735693693,13.4917924,13.491792399816784
4.511888089,-0.6200401783,13.60558987,-1.821835399,13.74101924,13.741019240012816
4.514394182,-0.8931210637,13.79252911,-1.886441588,13.94955864,13.949558643539874
4.516900328,-1.177866936,13.96241951,-1.980060697,14.15122502,14.151225016088
4.519406422,-1.472483277,14.13709545,-2.047059774,14.36022731,14.360227313026222
4.521912516,-1.790728688,14.29262829,-2.094916344,14.55591313,14.555913133791808
4.524418609,-2.118844509,14.41256905,-2.128415823,14.72215346,14.722153463061515
4.526924755,-2.444268227,14.50349617,-2.137987137,14.86259861,14.862598605785728
4.529430849,-2.789133787,14.53938866,-2.104487419,14.95332595,14.953325957292941
4.531936943,-3.105285645,14.53221035,-2.039881229,14.99963506,14.99963506296459
4.534443036,-3.430709362,14.5011034,-1.90079844,15.0221437,15.022143697006511
4.536949182,-3.746861219,14.42453289,-1.721336842,15.00230378,15.00230377684589
4.539455276,-4.014857292,14.3383913,-1.513161182,14.96656945,14.966569443588362
4.54196137,-4.252045631,14.25912952,-1.316650629,14.93774534,14.937745331712135
4.544467464,-4.453042984,14.1993084,-1.18743825,14.92849491,14.928494915872305
4.546973609,-4.596612453,14.15863037,-1.02711916,14.92148229,14.921482291186761
4.549479703,-4.675575256,14.13230991,-0.8883354068,14.91215368,14.912153672819302
4.551985797,-4.730610371,14.0988102,-0.7923234105,14.89237724,14.892377242222382
4.554491943,-4.764110088,14.04616833,-0.684646368,14.8479066,14.847906597715854
4.556998036,-4.793122768,14.02702522,-0.5865406394,14.8349416,14.834941601277162
4.55950413,-4.83858633,13.98156166,-0.5315057039,14.80467772,14.804677721535281
4.562010224,-4.900799751,13.96959782,-0.4525425732,14.81122197,14.811221969591466
4.564516318,-4.958227634,13.94566917,-0.323330164,14.80439976,14.80439976036185
4.567022464,-5.09461832,13.92891979,-0.1052841991,14.83175739,14.83175738425199
4.569528557,-5.242973328,13.92652702,0.2153540403,14.88231506,14.882315059142613
4.572034651,-5.417948723,13.90499115,0.6056832075,14.9355214,14.935521396807115
4.574540797,-5.590231895,13.84038544,0.9744769931,14.95849481,14.958494816582332
4.577046891,-5.738586903,13.70608807,1.309472203,14.91653268,14.916532682775482
4.579552984,-5.851049423,13.46680546,1.599302888,14.76981375,14.769813755611123
4.582059078,-5.918347836,13.29452229,1.673480392,14.64826613,14.64826613117065
4.584565224,-5.879763603,13.12194061,1.584945917,14.46613283,14.466132826686808
4.587071318,-5.817550182,12.98794174,1.41984117,14.30197433,14.301974329083011
4.589577411,-5.774479389,12.89940739,1.261615753,14.18911546,14.189115459935838
4.592083505,-5.745765209,12.86830139,1.15393877,14.13996369,14.139963691104013
4.594589651,-5.755336761,12.85872936,1.094118118,14.13038982,14.130389819193944
4.597095745,-5.829514027,12.83719444,1.115653515,14.14289496,14.142894952833684
4.599601839,-5.935097694,12.78694534,1.168295622,14.14553889,14.145538887785655
4.602107932,-6.066702843,12.68883896,1.144367456,14.1110274,14.111027404566617
4.604614078,-6.229414463,12.58804131,1.065404296,14.08543485,14.08543484909271
4.607120172,-6.408876419,12.43250847,0.9720842242,14.0209098,14.02090979749797
4.609626266,-6.602993965,12.28654575,0.8811569214,13.97623602,13.976236020073523
4.612132359,-6.818347931,12.10469151,0.7348956466,13.9123505,13.912350508516873
4.614638505,-7.03400135,11.91296673,0.5506483316,13.84554675,13.845546752908769
4.617144599,-7.249355316,11.79332542,0.3424727321,13.84748947,13.84748946675417
4.619650693,-7.474280834,11.72632694,0.1866401732,13.90706483,13.907064824883848
4.622156786,-7.73300457,11.71675491,0.1316052526,14.03919604,14.039196032649516
4.624662932,-7.967501163,11.71675491,0.08374879509,14.16934841,14.169348406475665
4.627169026,-8.077570915,11.70957661,-0.08614161611,14.2256373,14.225637302080322
4.62967512,-8.161619186,11.71436214,-0.4166502357,14.28327363,14.28327362698263
4.632181214,-8.250153542,11.71914768,-0.8114659786,14.35485747,14.354857465215382
4.634687359,-8.35304451,11.73589802,-1.098903775,14.44687663,14.446876632289428
4.637193453,-8.482256889,11.72871971,-1.268794179,14.53001675,14.530016745874546
4.639699547,-8.621041298,11.73350525,-1.299900889,14.61804504,14.618045041482876
4.642205693,-8.781659126,11.69282722,-1.21854496,14.6739428,14.67394279740702
4.644711786,-8.970691681,11.60668564,-1.084546804,14.70934066,14.709340656583198
4.64721788,-9.17886734,11.4699955,-0.97926265,14.72315719,14.723157193789106
4.649723974,-9.389735222,11.26899815,-0.9912267923,14.70169981,14.701699813210178
4.65223012,-9.585947037,11.02253723,-1.05822587,14.64604211,14.646042112968349
4.654736214,-9.791728973,10.73988533,-1.168295622,14.58039807,14.580398068729851
4.657242307,-9.9643116,10.44317532,-1.323829174,14.49482459,14.494824597354919
4.659748401,-10.11745262,10.13659477,-1.477268934,14.39776804,14.397768040654693
4.662254547,-10.25384331,9.8638134,-1.592124343,14.31680751,14.31680751213847
4.664760641,-10.40489006,9.583553314,-1.635195136,14.24008759,14.24008758455387
4.667266734,-10.5221386,9.286844254,-1.642373681,14.13004841,14.130048415476299
4.66977288,-10.62024403,9.008976936,-1.565803289,14.01438506,14.014385060714359
4.672278974,-10.69681454,8.709874153,-1.37886405,13.86308101,13.863081011544125
4.674785068,-10.7614212,8.427222252,-1.096511006,13.71235201,13.712352005206565
4.677291161,-10.79970551,8.130212784,-0.7492526174,13.53866236,13.538662360090163
4.679797255,-10.84995556,7.831110477,-0.3687937856,13.38595666,13.385956664103288
4.682303401,-10.86670494,7.534101009,-0.002392822644,13.22300874,13.223008734491383
4.684809495,-10.85713387,7.215855598,0.3376871049,13.04070398,13.0407039864842
4.687315589,-10.72792149,6.911668301,0.5985047817,12.77566695,12.77566695606808
4.689821734,-10.51256752,6.610172749,0.7588238716,12.44123279,12.441232788686625
4.692327828,-10.26341438,6.380162239,0.8691928387,12.11609018,12.1160901747387
4.694833922,-9.983454704,6.148058891,1.007976532,11.76792304,11.767923038628636
4.697340016,-9.724730492,5.985346794,1.163509965,11.47817559,11.478175587833414
4.699846109,-9.428020477,5.831906796,1.345364571,11.16730553,11.167305530917668
4.702352255,-9.131011009,5.695516109,1.551446438,10.87295966,10.872959663511153
4.704858349,-8.834300995,5.563910961,1.70937264,10.57941086,10.57941085668642
4.707364443,-8.544470787,5.422734261,1.80508554,10.2797063,10.279706304269432
4.709870536,-8.226224899,5.290830135,1.817049742,9.948131954,9.948131953852137
4.712376682,-7.92443037,5.161617756,1.855334878,9.637487331,9.637487331122987
4.714882776,-7.656434059,5.049154758,1.955833435,9.377645264,9.377645263898243
4.71738887,-7.421638489,4.955834866,2.140379906,9.177267742,9.177267742769414
4.719895016,-7.225427151,4.888835907,2.403590441,9.049019894,9.049019894333698
4.722401109,-7.065107822,4.788337231,2.681456804,8.946179775,8.94617977496452
4.724907203,-6.930810928,4.699503899,2.966202736,8.883683678,8.883683677813742
4.727413297,-6.794419765,4.620540619,3.203391314,8.819027807,8.819027807273441
4.729919443,-6.672386169,4.543970108,3.346960783,8.739024432,8.739024431456865
4.732425536,-6.574280262,4.481756687,3.421138287,8.660917454,8.660917453917298
4.73493163,-6.502495766,4.402793884,3.411566973,8.561882642,8.56188264245079
4.737437724,-6.432804585,4.314259052,3.346960783,8.437769402,8.437769401891765
4.73994387,-6.40648365,4.244867325,3.19382,8.322404554,8.32240455379153
4.742449964,-6.353841305,4.16081953,2.966202736,8.153654221,8.153654221354216
4.744956057,-6.346662998,4.079463482,2.71974206,8.019922093,8.019922093392614
4.747462151,-6.337091446,4.010071754,2.451446772,7.889803213,7.889803213207806
4.749968297,-6.344270229,3.940679789,2.159522533,7.774462008,7.774462007659664
4.752474391,-6.351448536,3.856930971,1.8840487,7.665928158,7.665928158056743
4.754980484,-6.365805626,3.754039526,1.642373681,7.570580251,7.570580251131683
4.75748663,-6.380162239,3.670290947,1.415055513,7.495324405,7.495324405018327
4.759992724,-6.387341022,3.571886063,1.213759303,7.418201064,7.418201063869643
4.762498818,-6.413661957,3.471387386,1.003190875,7.36152036,7.3615203602267005
4.765004911,-6.408876419,3.332603693,0.794716239,7.267153379,7.267153378671859
4.767511057,-6.413661957,3.177070379,0.5961119533,7.182213124,7.1822131235890945
4.770017151,-6.404090881,3.009273529,0.4190430641,7.08827936,7.088279359196968
4.772523245,-6.384948254,2.820240498,0.2560320199,6.984760058,6.984760058014235
4.775029339,-6.365805626,2.619243383,0.1411765367,6.885045242,6.885045241820649
4.777535484,-6.349055767,2.39162612,0.05503492057,6.78479281,6.784792809867104
4.780041578,-6.317949295,2.128415823,0.007178467698,6.666834987,6.66683498672243
4.782547672,-6.27966404,1.845763564,0.0,6.545305462,6.54530546189092
4.785053766,-6.212665081,1.556231976,0.02632104978,6.404666905,6.404666905426318
4.787559911,-6.143272877,1.206580877,0.08374879509,6.261202194,6.2612021940442855
4.790066005,-6.061916828,0.8931210637,0.1603191197,6.129453735,6.129453734563594
4.792572099,-5.963811398,0.5530411601,0.2850449979,5.99617808,5.99617807995287
4.795078193,-5.831906796,0.2321037948,0.4142574072,5.851206563,5.85120656345438
4.797584339,-5.688337803,-0.1004985496,0.579362154,5.718649091,5.718649090912826
4.800090432,-5.504090309,-0.4142574072,0.766002357,5.572555872,5.572555871409217
4.802596526,-5.321936607,-0.7253243923,0.9744769931,5.458819482,5.458819481634582
4.80510262,-5.135296345,-1.039083242,1.192223907,5.373300697,5.373300696889943
4.807608766,-4.941477776,-1.328614831,1.400399446,5.305142655,5.305142654840883
4.810114859,-4.730610371,-1.623231053,1.611266971,5.254496625,5.254496625317382
4.812620953,-4.496113777,-1.896012783,1.829013824,5.211064684,5.211064683671823
4.815127047,-4.264009953,-2.147558212,2.02073884,5.184319879,5.18431987947274
4.817633193,-4.036392689,-2.39162612,2.221735716,5.19118975,5.191189750859522
4.820139286,-3.840181351,-2.600100994,2.396411896,5.220182752,5.220182751863989
4.82264538,-3.66789794,-2.774776936,2.595315218,5.28095857,5.280958570524501
4.825151526,-3.526422262,-2.88006115,2.796312332,5.343198373,5.343198373237119
4.82765762,-3.39960289,-2.954238653,2.982952595,5.402113662,5.402113661576628
4.830163714,-3.265604734,-3.076272726,3.133999348,5.472620951,5.472620951310177
4.832669807,-3.078665495,-3.222533941,3.205784082,5.489987051,5.489987050203777
4.835175953,-2.896811008,-3.349353552,3.256033421,5.496493143,5.496493142998903
4.837682047,-2.71974206,-3.425923824,3.306282759,5.483197662,5.483197662244584
4.840188141,-2.549851656,-3.502494097,3.3852458,5.498099444,5.4980994437663115
4.842694234,-2.379662037,-3.535993576,3.492922783,5.510585409,5.510585408815721
4.84520038,-2.207378864,-3.55992198,3.595814228,5.520457039,5.520457038616303
4.847706474,-2.078166485,-3.5766716,3.708575964,5.555617999,5.555617999321258
4.850212568,-1.934298038,-3.581457376,3.821038723,5.582891971,5.582891970885782
4.852718661,-1.795514345,-3.564707518,3.897608995,5.578742451,5.578742450578931
4.855224807,-1.702194214,-3.555136204,3.931108475,5.566872767,5.566872767845824
4.857730901,-1.630409479,-3.521636724,3.900001764,5.501833699,5.5018336983447265
4.860236995,-1.551446438,-3.504886866,3.801896095,5.398669457,5.398669457432862
4.862743141,-1.604088426,-3.36849618,3.71336174,5.263926443,5.263926443748771
4.865249234,-1.807478428,-3.19382,3.651148319,5.176712133,5.1767121329490475
4.867755328,-2.114058733,-2.982952595,3.614956856,5.141513744,5.141513744154751
4.870261422,-2.444268227,-2.791526794,3.564707518,5.145309388,5.145309387784894
4.872767568,-2.822633505,-2.621636391,3.500101328,5.204896404,5.204896404005699
4.875273661,-3.210569859,-2.441875458,3.418745279,5.287564076,5.28756407569561
4.877779755,-3.586242914,-2.21216464,3.325425386,5.367798863,5.367798862712237
4.880285849,-3.926322937,-1.955833435,3.248854876,5.458603689,5.4586036892583785
4.882791995,-4.223331928,-1.718943954,3.12921381,5.530215182,5.530215182047808
4.885298089,-4.486542225,-1.505982757,2.959024191,5.581475554,5.581475554368439
4.887804182,-4.723432064,-1.292722464,2.769991398,5.626259341,5.6262593414405915
4.890310276,-4.910371304,-1.077368379,2.57617259,5.64881706,5.648817060295284
4.892816422,-5.06111908,-0.8548358679,2.379662037,5.657602152,5.657602152266222
4.895322516,-5.199902534,-0.6463612318,2.18105793,5.675718713,5.6757187121182735
4.897828609,-5.336592674,-0.4405784607,1.963011861,5.70322245,5.703222450040848
4.900334755,-5.461019516,-0.2105683982,1.790728688,5.750980998,5.75098099792371
4.902840849,-5.58066082,-0.0933200866,1.766800404,5.854405819,5.854405819040961
4.905346943,-5.712265968,0.06939185411,1.74047935,5.971939893,5.971939893063578
4.907853036,-5.834300041,0.3137588799,1.721336842,6.091018152,6.0910181518983535
4.910359182,-5.966204166,0.5841478109,1.745265007,6.243618403,6.2436184028200925
4.912865276,-6.109773636,0.8739784956,1.797907114,6.428502336,6.428502336042486
4.91537137,-6.25094986,1.175474167,1.886441588,6.634363235,6.634363235040295
4.917877464,-6.40648365,1.470090389,1.946262121,6.855080945,6.855080944320564
4.920383609,-6.581458569,1.790728688,1.970489502,7.099657386,7.099657386591407
4.922889703,-6.78484869,2.169093609,1.992024899,7.396438469,7.396438469225261
4.925395797,-7.002595425,2.597707987,2.07098794,7.750704517,7.750704517628057
4.927901891,-7.234998226,3.045166016,2.178664923,8.14646035,8.14646035047953
4.930408036,-7.464709282,3.533600807,2.243271112,8.558065471,8.558065471234825
4.93291413,-7.658827305,4.038785458,2.243271112,8.944366324,8.944366324424529
4.935420224,-7.859824181,4.558327198,2.068595171,9.318490703,9.318490702991733
4.937926318,-8.056035995,5.085047245,1.90079844,9.714445746,9.71444574569873
4.940432464,-8.25254631,5.638088226,1.934298038,10.18008194,10.180081941844334
4.942938557,-8.441578865,6.181558132,1.980060697,10.64859404,10.648594040393979
4.945444651,-8.606683731,6.684350014,1.8840487,11.05916721,11.059167213632932
4.947950797,-8.77448082,7.139285564,1.620838284,11.42751192,11.427511923763928
4.950456891,-8.961120605,7.536494255,1.208973646,11.77123806,11.771238058493513
4.952962984,-9.193224907,7.962715626,0.9481559992,12.1991485,12.199148500204785
4.955469078,-9.454340935,8.400900841,0.902692318,12.67969049,12.679690488198338
4.957975224,-9.765408516,8.824729919,0.8234301209,13.18776322,13.187763221701566
4.960481318,-10.11745262,9.200403214,0.8353942037,13.7006624,13.700662403464365
4.962987411,-10.53410244,9.538089752,0.9146564603,14.2400515,14.24005150180258
4.965493505,-11.01057339,9.810872078,0.926620543,14.77648682,14.77648682665016
4.967999651,-11.51575851,10.01216793,0.902692318,15.28630283,15.286302827699513
4.970505745,-12.02782249,10.14855862,0.7396813035,15.75464644,15.754646436695225
4.973011839,-12.5928278,10.21316528,0.6583253145,16.22718242,16.227182418915547
4.975517932,-13.25145149,10.26102161,0.8452646136,16.78106086,16.781060852631295
4.978024078,-14.0054903,10.29930687,1.295115232,17.43292299,17.43292299099556
4.980530172,-14.78106403,10.32084274,1.690230131,18.10680885,18.106808846909242
4.983036266,-15.59282875,10.30648518,1.936690807,18.79124042,18.791240418724477
4.985542411,-16.45215034,10.23230743,2.082952023,19.48620167,19.486201663795722
4.988048505,-17.37877083,10.134202,2.224128723,20.24031804,20.240318038878158
4.990554599,-18.25992775,10.02413273,2.530709028,20.98362901,20.98362901426438
4.993060693,-19.16471481,9.906884193,2.741277456,21.74735042,21.74735041914119
4.995566839,-20.09372902,9.820742607,2.791526794,22.53880106,22.538801057814837
4.998072932,-21.01047897,9.719944954,2.59052968,23.2943856,23.294385599980167
5.000579026,-21.89881325,9.667302132,2.300698996,24.0480346,24.048034600356484
5.00308512,-22.78714943,9.597910881,1.936690807,24.8017105,24.801710499614455
5.005591266,-23.69193459,9.456734657,1.568196177,25.55771574,25.55771574768177
5.008097359,-24.62812614,9.262915611,1.24965167,26.34213037,26.342130363366447
5.010603453,-25.45873642,9.308379173,0.9385846853,27.1233133,27.123313295813517
5.013109547,-26.20828819,9.475876808,0.5889334679,27.87496106,27.874961053965592
5.015615693,-26.90968323,9.645767212,0.1866401732,28.58682758,28.586827581970155
5.018121786,-27.60150909,9.820742607,-0.2560320199,29.29771053,29.297710521361765
5.02062788,-28.23829842,9.9643116,-0.7325028181,29.9537237,29.953723703362716
5.023133974,-28.81526756,10.0839529,-1.223330617,30.55326969,30.55326968496656
5.02564012,-29.33002281,10.16770172,-1.74047935,31.09118307,31.091183069638692
5.028146214,-29.77778053,10.21555805,-2.24566412,31.56131884,31.561318839770024
5.030652307,-30.19203758,10.21555805,-2.705385208,31.98805822,31.98805821910291
5.033158401,-30.51506805,10.20837975,-3.030808926,32.31974935,32.31974934869177
5.035664547,-30.80011368,10.1844511,-3.241676569,32.60181765,32.601817646984316
5.038170641,-30.97239685,10.11266708,-3.454637766,32.76415609,32.764156088614264
5.040676734,-31.03700256,10.02173901,-3.629313707,32.81619568,32.81619567649212
5.04318288,-30.87668419,9.952347755,-3.80907464,32.66386232,32.663862325489625
5.045688974,-30.18964577,9.88534832,-4.074677944,32.02714198,32.027141981031114
5.048195068,-29.07877731,9.892526627,-4.304687977,31.01560433,31.01560432249875
5.050701161,-27.80041122,9.973882675,-4.400400639,29.86142538,29.861425374544307
5.053207307,-26.39014244,10.05284595,-4.34775877,28.57275514,28.572755135268853
5.055713401,-25.02084923,10.07198906,-4.206283092,27.29799768,27.29799767867959
5.058219495,-23.67279243,10.0145607,-4.026821613,26.01745222,26.017452214826374
5.060725589,-22.3633213,9.873384476,-3.749253988,24.73173601,24.73173600951792
5.063231734,-21.1208477,9.674481392,-3.366103172,23.47373955,23.473739547317507
5.065737828,-19.98844337,9.456734657,-2.939881802,22.30718727,22.307187266402114
5.068243922,-18.92782593,9.205188751,-2.43708992,21.18814531,21.18814530949047
5.070750016,-17.96052742,8.946763992,-1.881655931,20.15355453,20.153554529555997
5.073256161,-17.05065536,8.68803978,-1.31425786,19.18160987,19.181609868489428
5.075762255,-16.22961807,8.436793327,-0.8090731502,18.30941244,18.30941243467296
5.078268349,-15.51625824,8.22383213,-0.3735794425,17.56488674,17.564886742380292
5.080774495,-14.87946892,8.034500122,-0.02632104978,16.91012952,16.910129518999124
5.083280589,-14.31924915,7.888537884,0.2249253243,16.34993938,16.349939375073852
5.085786682,-13.82842159,7.74736166,0.3903291821,15.85557357,15.855573569947413
5.088292776,-13.4285202,7.610970497,0.6439684033,15.44884209,15.448842091641081
5.090798922,-13.05494118,7.486244678,0.8234301209,15.0716086,15.071608598824099
5.093305016,-12.76780224,7.412067413,0.9050851464,14.79103433,14.791034328161079
5.095811109,-12.54497051,7.335496902,0.8644071817,14.5579188,14.557918796029734
5.098317203,-12.4181509,7.278069019,0.632004261,14.40764345,14.407643450836108
5.100823349,-12.35354519,7.218248844,0.2273181528,14.30960756,14.309607565474039
5.103329443,-12.34397411,7.144071102,-0.2512463629,14.26445139,14.26445139056011
5.105835536,-12.42293739,7.043572426,-0.7779664397,14.30197601,14.301976006743509
5.108341682,-12.55693531,6.957131863,-1.194616675,14.40504832,14.405048321296348
5.110847776,-12.70558929,6.873383045,-1.477268934,14.52094065,14.520940644215088
5.11335387,-12.85155106,6.780063152,-1.637588024,14.6223567,14.622356702298147
5.115859964,-13.02144146,6.686742783,-1.754836321,14.74279204,14.74279204410448
5.118366109,-13.17697525,6.610172749,-1.862513304,14.85920645,14.859206449817965
5.120872203,-13.28016567,6.552744865,-1.965703845,14.93871672,14.938716715122428
5.123378297,-13.26341629,6.495316982,-2.097309113,14.91663702,14.916637016900552
5.125884391,-13.21077347,6.439982891,-2.219342947,14.86349213,14.863492134368263
5.128390536,-13.13390446,6.399304867,-2.355733871,14.79864964,14.798649641646174
5.13089663,-13.06690502,6.389733791,-2.463410854,14.75266409,14.752664090161934
5.133402724,-12.92812157,6.351448536,-2.609672308,14.63856603,14.638566029133381
5.13590887,-12.75344563,6.289235115,-2.793919563,14.49175076,14.491750767027055
5.138414964,-12.53300667,6.210271835,-2.985345364,14.30230818,14.30230818424827
5.140921057,-12.32722378,6.102594852,-3.208176851,14.1242525,14.12425250259803
5.143427151,-12.06879902,5.992525101,-3.41635251,13.90099749,13.900997494563162
5.145933297,-11.76700401,5.882156372,-3.612564087,13.64231528,13.642315281457853
5.148439391,-11.45563793,5.740979671,-3.80907464,13.36785464,13.367854636372325
5.150945484,-11.12064362,5.602196217,-3.995714664,13.0774253,13.077425306723049
5.153451578,-10.73749256,5.449055195,-4.14646244,12.73495582,12.734955820910514
5.155957724,-10.28973579,5.295615673,-4.319045067,12.35218031,12.352180304501195
5.158463818,-9.842277527,5.125725269,-4.474578381,11.96517188,11.965171880899453
5.160969911,-9.392127991,4.963013172,-4.60379076,11.57749789,11.577497886271999
5.163476057,-8.906085968,4.783551693,-4.721039295,11.15746145,11.157461453840822
5.165982151,-8.38175869,4.591826439,-4.809872627,10.69923471,10.69923471427998
5.168488245,-7.850253105,4.405186653,-4.872086048,10.23569078,10.235690778811549
5.170994339,-7.318747044,4.201497555,-4.919942379,9.768442711,9.768442711681832
5.173500432,-6.748956203,4.014857292,-4.943870544,9.279512103,9.279512102528269
5.176006578,-6.179165363,3.804288864,-4.984548569,8.803432443,8.803432443131104
5.178512672,-5.614160061,3.571886063,-5.006083965,8.326946613,8.326946613387843
5.181018766,-5.015655518,3.375674486,-5.020441055,7.858549923,7.8585499233258505
5.183524911,-4.443471432,3.184248686,-5.049154758,7.441628977,7.441628977013494
5.186031005,-3.844966888,2.982952595,-5.0324049,7.000491099,7.000491099299938
5.188537099,-3.275176048,2.774776936,-5.010869503,6.598104149,6.598104149378511
5.191043193,-2.702992201,2.55942297,-5.006083965,6.238404399,6.238404398775424
5.193549339,-2.13559413,2.365305185,-5.018048286,5.944429284,5.94442928353142
5.196055432,-1.589731574,2.173879385,-5.015655518,5.692960419,5.692960419074099
5.198561526,-1.022333503,2.001596212,-5.001298428,5.483114001,5.48311400147437
5.201067672,-0.4573282301,1.817049742,-5.003691196,5.343008933,5.343008933164587
5.203573766,0.1004985496,1.625623941,-4.986941338,5.246173564,5.246173564101488
5.206079859,0.6559324861,1.458126307,-4.958227634,5.209645,5.209644999810258
5.208585953,1.237687469,1.299900889,-4.974977493,5.2888575,5.288857499309201
5.211092099,1.783550143,1.141974568,-5.015655518,5.444442791,5.444442790754437
5.213598193,2.324627161,1.063011408,-5.130510807,5.732017606,5.732017605690064
5.216104286,2.875275612,0.9936196208,-5.269294739,6.084402751,6.084402751482991
5.21861038,3.411566973,0.950548768,-5.37487793,6.436741794,6.43674179488441
5.221116526,3.945465326,0.9314061999,-5.470590591,6.808933512,6.808933511367119
5.22362262,4.467400074,0.9481559992,-5.585446358,7.21483709,7.2148370901975065
5.226128714,4.998905659,0.9625129104,-5.755336761,7.683709399,7.683709398642486
5.228634859,5.530411243,1.019940615,-5.951847076,8.188419322,8.188419321878742
5.231140953,6.061916828,1.084546804,-6.128916264,8.688307774,8.688307773714046
5.233647047,6.559923172,1.192223907,-6.31316328,9.182048817,9.18204881640831
5.236153141,7.043572426,1.287936807,-6.492924213,9.665855295,9.66585529453522
5.238659286,7.534101009,1.398006678,-6.646064758,10.1433366,10.143336603557875
5.24116538,7.98903656,1.491625786,-6.806384087,10.60077907,10.600779074305981
5.243671474,8.424829483,1.604088426,-6.937989235,11.0311625,11.031162500889428
5.246177568,8.858229637,1.711765528,-7.086643219,11.47252743,11.472527430260213
5.248683714,9.26530838,1.802692771,-7.201498985,11.87254093,11.872540934192223
5.251189807,9.636196136,1.903191328,-7.287640572,12.23062216,12.230622155438219
5.253695901,9.961918831,2.02073884,-7.287640572,12.50731455,12.507314554354881
5.256201995,10.246665,2.137987137,-7.251748085,12.73393038,12.73393037944309
5.258708141,10.5293169,2.238485575,-7.144071102,12.91956207,12.919562065354235
5.261214234,10.73509979,2.367697954,-6.954739094,13.00833414,13.008334135016895
5.263720328,10.88106155,2.50169611,-6.684350014,13.0129366,13.012936601372472
5.266226474,10.99621677,2.647957325,-6.329913139,12.96133719,12.961337183914907
5.268732568,11.05842972,2.767598391,-5.927918911,12.84868442,12.848684420649317
5.271238661,11.07278633,2.927917719,-5.504090309,12.70725421,12.70725420414248
5.273744755,11.00578785,3.124428272,-5.0324049,12.49858061,12.498580611558442
5.276250901,10.84516907,3.394817114,-4.493721008,12.22031112,12.220311120922107
5.278756995,10.36151981,3.739682674,-3.727718592,11.62936822,11.629368219141602
5.281263089,9.593125343,4.031607151,-2.789133787,10.77316933,10.77316932700346
5.283769182,8.750552177,4.273581028,-1.838585138,9.91040128,9.910401279209406
5.286275328,7.907680511,4.481756687,-1.034297585,9.148077698,9.148077697519588
5.288781422,7.077072144,4.644468784,-0.3807578981,8.473548076,8.473548075859174
5.291287516,6.34187746,4.85294342,0.1555334777,7.987155954,7.987155953032519
5.293793609,5.695516109,5.104189873,0.6367899179,7.674448476,7.674448475757288
5.296299755,5.10897541,5.398806095,1.022333503,7.502926282,7.502926281308519
5.298805849,4.55354166,5.719444275,1.319043517,7.42877246,7.4287724600990135
5.301311943,4.053142548,6.07148838,1.551446438,7.463104027,7.463104026667848
5.303818089,3.564707518,6.439982891,1.718943954,7.558788768,7.558788768199015
5.306324182,3.078665495,6.84945488,1.874477386,7.739953414,7.739953414193447
5.308830276,2.628814697,7.244569778,2.056631088,7.976477256,7.976477255756593
5.31133637,2.152343988,7.651648521,2.252842426,8.26169527,8.26169526961548
5.313842516,1.685444474,8.065607071,2.475374937,8.603616773,8.603616773045513
5.316348609,1.211366415,8.465507507,2.726920605,8.975985847,8.975985847161128
5.318854703,0.7851449251,8.867800713,3.014059305,9.398877355,9.398877354926526
5.321360849,0.375972271,9.260522842,3.346960783,9.853973054,9.85397305347973
5.323866943,0.0,9.640981674,3.61017108,10.29474929,10.294749286178476
5.326373036,-0.3161516786,10.00259686,3.756432533,10.68937234,10.689372348390913
5.32887913,-0.6056832075,10.35673428,3.76361084,11.03601212,11.03601212618671
5.331385276,-0.8401798606,10.71595669,3.622135162,11.34272864,11.342728644903323
5.33389137,-1.055832982,11.07278633,3.392424345,11.62884016,11.628840154214116
5.336397464,-1.264008522,11.47238827,3.110071182,11.95349124,11.953491243918199
5.338903557,-1.458126307,11.86750317,2.772384167,12.27395119,12.27395118886163
5.341409703,-1.623231053,12.29851055,2.334198475,12.6228651,12.622865099515922
5.343915797,-1.74047935,12.77258778,1.766800404,13.01114332,13.011143325363697
5.346421891,-1.795514345,13.28973675,1.034297585,13.45030654,13.450306544526715
5.348927984,-1.829013824,13.84995651,0.1435693651,13.97094124,13.970941237435282
5.35143413,-1.824228168,14.48674679,-0.7301099896,14.6193947,14.619394705780866
5.353940224,-1.833799481,15.20728493,-1.5011971,15.3908391,15.39083910031449
5.356446318,-1.872084618,16.02622795,-2.066202402,16.26695655,16.266956552728107
5.358952464,-1.924726725,16.9166584,-2.355733871,17.18800124,17.188001235140646
5.361458557,-2.047059774,17.81217194,-2.240878344,18.06890862,18.068908619257016
5.363964651,-2.238485575,18.70738602,-1.771586061,18.9239432,18.923943208071197
5.366470745,-2.580958366,19.49283028,-0.8931210637,19.68322747,19.683227470268562
5.368976891,-3.028416157,20.1296196,0.1962114573,20.35709676,20.357096762472263
5.371482984,-3.634099483,20.62284088,1.5011971,20.99432871,20.99432870437129
5.373989078,-4.395615101,20.92912292,2.925524712,21.58490939,21.58490938496456
5.376495172,-5.300401211,21.04666901,4.474578381,22.16028838,22.16028838038389
5.379001318,-6.286842346,21.05145454,6.011667728,22.77780222,22.777802216303094
5.381507411,-7.397710323,20.95305061,7.584649563,23.47942412,23.4794241173364
5.384013505,-8.575576782,20.78076744,8.963513374,24.20176408,24.20176407919924
5.386519651,-9.741479874,20.61087608,10.1270237,24.9451649,24.94516490105898
5.389025745,-10.93609715,20.42633057,11.15892887,25.71682124,25.716821245147585
5.391531839,-12.10947704,20.26601219,12.10708427,26.53172015,26.531720143790096
5.394037984,-13.26341629,20.06979942,12.92094326,27.30688256,27.30688256042804
5.396544078,-14.40778351,19.85414696,13.54337597,28.02132063,28.021320629925324
5.399050172,-15.51865101,19.57179451,13.83799267,28.55474935,28.554749353598147
5.401556266,-16.60080528,19.17428589,13.7853508,28.86651818,28.86651818309561
5.404062411,-17.68535233,18.66192245,13.41177082,28.99852812,28.998528119445197
5.406568505,-18.76481438,17.99881172,12.83480167,28.99668284,28.996682844009914
5.409074599,-19.86611176,17.18016815,12.07358456,28.90660855,28.906608556704732
5.411580693,-20.88605118,16.25115395,11.23310566,28.74908348,28.749083487459284
5.414086839,-21.91556358,15.21685696,10.38335514,28.62968262,28.629682616708962
5.416592932,-22.89482689,14.12034512,9.518947601,28.53362241,28.53362241394455
5.419099026,-23.79961205,12.99272823,8.621041298,28.45267779,28.452677794031366
5.421605172,-24.60419846,11.86032486,7.807182312,28.40749871,28.407498715948332
5.424111266,-25.34627342,10.7925272,7.03400135,28.43218941,28.432189409821046
5.426617359,-25.92802811,9.774979591,6.229414463,28.40102942,28.401029421998953
5.429123453,-26.34946442,8.805587769,5.439484119,28.30937369,28.309373688926105
5.431629599,-26.6366024,7.898109436,4.68275404,28.17475653,28.174756529167283
5.434135693,-26.79722023,7.060322285,3.986143351,27.99693736,27.99693736175281
5.436641786,-26.82832718,6.289235115,3.363710403,27.7601903,27.760190296252045
5.43914788,-26.66322327,5.652445316,2.810669184,27.40031887,27.400318875117623
5.441654026,-26.07159805,5.164010525,2.202593327,26.66920785,26.669207842514172
5.44416012,-24.98495674,4.905585289,1.637588024,25.51459435,25.51459435036491
5.446666214,-23.67757797,4.829015255,1.383649707,24.20457753,24.20457752926362
5.449172307,-22.31546402,4.826622486,1.48444736,22.87968101,22.87968100771701
5.451678453,-20.95783615,4.860121727,1.826620936,21.59139234,21.591392343601598
5.454184547,-19.64118576,4.872086048,2.288734913,20.36545379,20.36545378870621
5.456690641,-18.39871216,4.824229717,2.779562712,19.22268895,19.22268894766959
5.459196786,-17.22323799,4.677968502,3.212962627,18.13412377,18.134123772831764
5.46170288,-16.1697979,4.429114819,3.631706476,17.15426227,17.154262273107232
5.464208974,-15.26471329,4.074677944,4.060320854,16.31259261,16.31259260849268
5.466715068,-14.47478199,3.679862022,4.567898273,15.61814307,15.61814306476486
5.469221214,-13.84995651,3.232105255,5.125725269,15.1175679,15.117567901006932
5.471727307,-13.3710928,2.722134829,5.729015827,14.79924873,14.799248732266216
5.474233401,-13.05972672,2.16670084,6.301199436,14.66138359,14.661383593078295
5.476739547,-12.91137218,1.604088426,6.772884369,14.66794444,14.667944434199008
5.479245641,-12.79651642,1.108475089,7.156035423,14.7033463,14.703346302304585
5.481751734,-12.75105286,0.6942176819,7.414460182,14.76636404,14.766364041931253
5.484257828,-12.71755314,0.3376871049,7.529315472,14.7831249,14.783124903972036
5.486763974,-12.70319653,0.02632104978,7.514958382,14.75962378,14.759623787910638
5.489270068,-12.69362545,-0.2584248483,7.359425068,14.67501441,14.675014405397135
5.491776161,-12.66491127,-0.5171487927,7.124928474,14.54070239,14.5407023939829
5.494282307,-12.61436272,-0.766002357,6.823133945,14.36189623,14.361896228356011
5.496788401,-12.54497051,-0.9960124493,6.490531445,14.15963716,14.159637154053915
5.499294495,-12.43250847,-1.213759303,6.160022736,13.92789857,13.927898571223073
5.501800589,-12.28415298,-1.424626827,5.853442192,13.68184058,13.681840575278487
5.504306734,-12.07358456,-1.62801671,5.56630373,13.3942383,13.394238304215794
5.506812828,-11.85553932,-1.793121457,5.276473045,13.10001011,13.100010111531649
5.509318922,-11.57797146,-1.98963201,4.994120121,12.7651594,12.76515939762478
5.511825016,-11.26899815,-2.193022013,4.709074974,12.40866842,12.408668420300346
5.514331161,-10.91695404,-2.353341103,4.42672205,12.01307488,12.013074875588588
5.516837255,-10.58913708,-2.458625317,4.141676903,11.6330628,11.633062800366375
5.519343349,-10.26102161,-2.547458887,3.85932374,11.25488743,11.254887426890145
5.521849495,-10.04088211,-2.480160713,3.583850145,10.94598066,10.945980658261883
5.524355589,-9.906884193,-2.398804665,3.380460262,10.73909353,10.739093528659676
5.526861682,-9.638588905,-2.456232548,3.155534744,10.43517484,10.435174839456923
5.529367776,-9.368199348,-2.504088879,2.937488794,10.13224854,10.132248543767304
5.531873922,-9.05922699,-2.520838737,2.714956284,9.787502706,9.78750270591714
5.534380016,-8.738588333,-2.542673111,2.51844573,9.443022901,9.443022900427668
5.536886109,-8.40329361,-2.588136673,2.370090723,9.106652786,9.106652786246164
5.539392255,-8.079963684,-2.657528639,2.293520451,8.809569096,8.809569096216869
5.541898349,-7.725826263,-2.717349291,2.255235434,8.49461391,8.49461390989184
5.544404443,-7.345067978,-2.765205622,2.305484533,8.17995383,8.179953830266015
5.546910536,-6.957131863,-2.758027315,2.396411896,7.858192438,7.8581924387702715
5.549416682,-6.543173313,-2.791526794,2.537887573,7.552920772,7.552920771381303
5.551922776,-6.13609457,-2.844168901,2.664707184,7.269224009,7.26922400850739
5.55442887,-5.726622581,-2.908775091,2.810669184,7.011065538,7.011065537928481
5.556935016,-5.305186749,-3.009273529,2.918346405,6.761470206,6.761470206521783
5.559441109,-4.855336189,-3.110071182,2.999702215,6.499618885,6.499618884518986
5.561947203,-4.429114819,-3.234498024,3.042773008,6.271961665,6.271961664850852
5.564453297,-4.000500202,-3.401995659,3.069094181,6.082508974,6.0825089742560134
5.566959391,-3.547957659,-3.583850145,3.081058264,5.909729726,5.9097297263103306
5.569465536,-3.052344322,-3.766003847,3.049951553,5.727285161,5.72728516064213
5.57197163,-2.564208508,-3.959822416,3.016452074,5.599494795,5.599494794487675
5.574477724,-2.114058733,-4.182354927,2.944667339,5.534654714,5.5346547136518
5.57698387,-1.673480392,-4.441078663,2.829811811,5.525536282,5.525536281578236
5.579489964,-1.21854496,-4.694717884,2.712563515,5.557268092,5.557268092579302
5.581996057,-0.7396813035,-4.898406982,2.650350094,5.618351628,5.618351627730291
5.584502151,-0.2703889608,-5.085047245,2.602493763,5.718722712,5.718722712324711
5.587008297,0.1938186288,-5.264508724,2.542673111,5.849598646,5.849598645663174
5.589514391,0.6367899179,-5.31715107,2.566601276,5.938437421,5.9384374216376195
5.592020484,1.043868899,-5.31715107,2.767598391,6.084517945,6.084517945849729
5.59452663,1.48444736,-5.370092392,2.990130901,6.323160529,6.32316052843373
5.597032724,1.924726725,-5.401198864,3.200998545,6.566880067,6.566880067390925
5.599538818,2.322234392,-5.425127029,3.363710403,6.792593285,6.792593284410925
5.602044911,2.717349291,-5.451447964,3.473780155,7.012091032,7.012091031837063
5.604551057,3.07148695,-5.48734045,3.607778311,7.249896664,7.249896664060014
5.607057151,3.406781197,-5.48734045,3.732504129,7.459802304,7.459802303777292
5.609563245,3.722932816,-5.496912003,3.844966888,7.672029763,7.672029763432333
5.612069391,4.026821613,-5.461019516,3.952643871,7.852478592,7.852478591375507
5.614575484,4.299902439,-5.403591633,4.029214382,7.995156788,7.9951567875346505
5.617081578,4.541577339,-5.31715107,4.093820572,8.102924602,8.102924601836728
5.619587672,4.766502857,-5.190331459,4.136891365,8.171472346,8.171472346271864
5.622093818,4.9821558,-5.030012131,4.124927044,8.193773341,8.193773341495564
5.624599911,5.219045162,-4.817050934,4.062713623,8.182179055,8.182179054888476
5.627106005,5.437091351,-4.548755646,3.957429647,8.118767745,8.118767744990025
5.629612151,5.652445316,-4.132105827,3.830610037,7.981103299,7.981103299134953
5.632118245,5.781657696,-3.459423304,3.785146236,7.72803386,7.72803385977826
5.634624339,5.602196217,-2.549851656,3.92392993,7.299559713,7.299559713909111
5.637130432,5.130510807,-1.604088426,4.153641224,6.793230177,6.793230176939625
5.639636578,4.503292084,-0.8114659786,4.280759811,6.266021161,6.266021160809711
5.642142672,3.804288864,-0.2009970993,4.237689018,5.698335003,5.698335003135497
5.644648766,3.057130098,0.2201396823,4.01964283,5.054902017,5.054902016517337
5.647154911,2.271985054,0.4980062246,3.756432533,4.418224945,4.41822494451341
5.649661005,1.472483277,0.7157530785,3.54556489,3.905321992,3.905321991798832
5.652167099,0.6678966284,0.8931210637,3.421138287,3.598324376,3.5983243766272657
5.654673193,-0.07896314561,1.060618639,3.406781197,3.568936144,3.5689361440058844
5.657179339,-0.7683951855,1.206580877,3.423531055,3.710368373,3.710368372330581
5.659685432,-1.383649707,1.347757339,3.447459221,3.951697286,3.9516972855935553
5.662191526,-1.936690807,1.465304732,3.478565931,4.242441535,4.2424415347596485
5.66469762,-2.434697151,1.616052628,3.516851187,4.572484946,4.57248494640021
5.667203766,-2.844168901,1.764407635,3.538386583,4.870586274,4.870586273808961
5.669709859,-3.232105255,1.941476464,3.586242914,5.203553928,5.203553927642123
5.672215953,-3.5766716,2.147558212,3.622135162,5.524893587,5.524893586302994
5.674722099,-3.909573078,2.389233351,3.706183195,5.893130877,5.893130876932354
5.677228193,-4.237689018,2.657528639,3.806681633,6.285800803,6.285800803032383
5.679734286,-4.546362877,2.935096025,3.945465326,6.697081508,6.697081507940814
5.68224038,-4.833800793,3.234498024,4.091427803,7.111075097,7.111075097397632
5.684746526,-5.142475128,3.55992198,4.314259052,7.598087004,7.598087003552254
5.68725262,-5.453841209,3.909573078,4.579862595,8.124302246,8.12430224538016
5.689758714,-5.767300606,4.28315258,4.864907742,8.676086655,8.67608665480585
5.692264807,-6.090631008,4.663611412,5.140082359,9.233932214,9.233932214124746
5.694770953,-6.425626278,5.044369221,5.432305813,9.81041693,9.810416930398517
5.697277047,-6.775277138,5.425127029,5.662016392,10.36314688,10.363146877313307
5.699783141,-7.134500027,5.798407555,5.846263885,10.89501823,10.895018229548741
5.702289286,-7.510172844,6.15045166,6.02363205,11.42431157,11.424311569741917
5.70479538,-7.902894974,6.461817741,6.193522453,11.94029136,11.940291364275494
5.707301474,-8.379365921,6.70588541,6.435197353,12.51376991,12.513769909268959
5.70980762,-8.891729355,6.923632145,6.629314899,13.07468352,13.07468351555591
5.712313714,-9.42323494,7.134500027,6.772884369,13.62242306,13.622423060731316
5.714819807,-9.976275444,7.337889671,6.751348972,14.10501363,14.105013629913703
5.717325901,-10.55803108,7.526922703,6.612565517,14.55515745,14.555157449502229
5.719832047,-11.16610718,7.735397339,6.344270229,14.99226755,14.992267549841536
5.722338141,-11.82682514,7.962715626,5.997310638,15.46759089,15.467590889383795
5.724844234,-12.51147175,8.156833649,5.55194664,15.93408209,15.934082089091735
5.727350328,-13.23230934,8.355437279,4.960620403,16.41691498,16.416914977407114
5.729856474,-13.99591827,8.527720451,4.304687977,16.94514925,16.945149243670055
5.732362568,-14.79781342,8.700303078,3.617349625,17.54296936,17.54296936016466
5.734868661,-15.61436462,8.848658562,2.903989315,18.18076717,18.18076716683864
5.737374807,-16.44975853,9.056833267,2.243271112,18.91171726,18.911717262149395
5.739880901,-17.34527206,9.260522842,1.680658817,19.73424334,19.73424333998596
5.742386995,-18.26471519,9.317950249,1.254437327,20.54258092,20.542580919203576
5.744893089,-19.22214317,9.245866776,1.046261668,21.35583068,21.35583067842233
5.747399234,-20.19661903,9.037691116,1.060618639,22.15193429,22.15193429135654
5.749905328,-21.16631126,8.709874153,1.180259824,22.91871841,22.918718405889297
5.752411422,-22.09263229,8.27408123,1.307079315,23.62738407,23.62738407097768
5.754917516,-22.99293137,7.768897057,1.415055513,24.31117102,24.311171024297966
5.757423661,-23.83311081,7.215855598,1.470090389,24.9448774,24.944877402880877
5.759929755,-24.58266258,6.607779503,1.496411443,25.49920189,25.4992018833755
5.762435849,-25.24577522,6.028417587,1.642373681,26.00746771,26.007467703912628
5.764941995,-25.86102867,5.506483078,1.742872238,26.49814642,26.49814641435988
5.767448089,-26.33271408,5.089832783,1.958226204,26.89150198,26.89150197448934
5.769954182,-26.78286362,4.759324074,2.176272154,27.28935891,27.289358911802076
5.772460328,-27.13460922,4.520041943,2.348555326,27.60857673,27.60857672550092
5.774966422,-27.4268322,4.409972191,2.511267424,27.89239042,27.89239041973982
5.777472516,-27.64218712,4.460221291,2.741277456,28.13358642,28.13358641966142
5.779978609,-27.81716156,4.65403986,2.994916677,28.36237103,28.362371025282478
5.782484755,-27.95355225,4.934299469,3.222533941,28.56804368,28.56804367898073
5.784990849,-28.01098061,5.329114914,3.457030535,28.72221371,28.722213713784942
5.787496943,-28.01815796,5.82233572,3.710968733,28.85633479,28.856334792298256
5.790003036,-27.88655281,6.284449577,3.92392993,28.85396611,28.85396610877479
5.792509182,-27.48665237,6.78484869,3.931108475,28.5832791,28.583279099810053
5.795015276,-26.87379074,7.239784241,3.696611881,28.07632533,28.07632532922163
5.79752137,-26.11735916,7.639684677,3.404388428,27.4239146,27.423914600675168
5.800027516,-25.29123878,7.960322857,3.093321562,26.69423416,26.69423415834563
5.802533609,-24.43430901,8.211868286,2.722134829,25.92065307,25.920653069898425
5.805039703,-23.59861565,8.362615585,2.267199516,25.13897757,25.138977577941798
5.807545797,-22.77279282,8.417651176,1.699801445,24.33816486,24.338164867053592
5.810051943,-22.00409698,8.386544228,1.022333503,23.57031128,23.5703112789119
5.812558036,-21.30030823,8.317152023,0.4118646085,22.87023788,22.870237885129956
5.81506413,-20.64916229,8.211868286,-0.04307080805,22.22216324,22.222163241230064
5.817570224,-20.05305099,8.142476082,-0.375972271,21.64638829,21.64638828770386
5.82007637,-19.49283028,8.111070633,-0.6391827464,21.12269996,21.12269996287632
5.822582464,-18.94696808,8.084749222,-0.789930582,20.61491595,20.61491595257054
5.825088557,-18.45135498,8.06799984,-0.8452646136,20.15588237,20.155882374215604
5.827594703,-17.95574188,8.087141991,-0.789930582,19.70874228,19.708742282757676
5.830100797,-17.46969986,8.108677864,-0.6463612318,19.27067339,19.270673385810408
5.832606891,-16.99801445,8.123034477,-0.4453641176,18.84448284,18.844482841250514
5.835113036,-16.53829193,8.11824894,-0.2416750938,18.42496873,18.424968729001346
5.83761913,-16.09083557,8.125427246,-0.07417750359,18.02617707,18.026177064836993
5.840125224,-15.61915016,8.125427246,0.0143569354,17.60626666,17.606266661966167
5.842631318,-15.15703583,8.101499557,0.04067798331,17.1863808,17.18638079766363
5.845137464,-14.66860104,8.06799984,0.007178467698,16.74098352,16.740983526045525
5.847643557,-14.22323704,8.034500122,-0.0933200866,16.33592277,16.335922769926682
5.850149651,-13.76142216,8.022536278,-0.2033899277,15.93044869,15.930448696137061
5.852655797,-13.28495121,8.001000404,-0.3305086195,15.51177527,15.511775271207755
5.855161891,-12.79173088,7.967501163,-0.4860421121,15.07798696,15.07798695527644
5.857667984,-12.29133129,7.948358536,-0.6678966284,14.65262141,14.652621410640664
5.860174078,-11.79571819,7.917252064,-0.8476574421,14.23166789,14.231667892483884
5.862680224,-11.33121204,7.898109436,-1.041476011,13.85139601,13.851396003290127
5.865186318,-10.82841969,7.859824181,-1.199402332,13.4339151,13.433915106662655
5.867692411,-10.36151981,7.838288784,-1.323829174,13.05957073,13.059570724810834
5.870198557,-9.94277668,7.833503246,-1.39561379,12.73461107,12.734611068434031
5.872704651,-9.523733139,7.807182312,-1.41984117,12.39635178,12.396351782025203
5.875210745,-9.12861824,7.766504288,-1.415055513,12.06866364,12.068663634887452
5.877716839,-8.726624489,7.709076405,-1.417448282,11.73000399,11.730003990719142
5.880222984,-8.336295128,7.627720356,-1.431805253,11.38973224,11.389732243251888
5.882729078,-7.948358536,7.553243637,-1.429412484,11.05762691,11.057626911145993
5.885235172,-7.569993496,7.426424026,-1.410269856,10.69791739,10.697917386583924
5.887741266,-7.194320202,7.285247803,-1.340578914,10.32619148,10.326191483053327
5.890247411,-6.820741177,7.16321373,-1.20179522,9.96385733,9.963857330175834
5.892753505,-6.454638958,7.036394119,-1.096511006,9.611219624,9.611219624080402
5.895259599,-6.100202084,6.882954121,-0.9864411354,9.249896702,9.24989670272258
5.897765745,-5.738586903,6.739385128,-0.8763712645,8.894870327,8.894870327330919
5.900271839,-5.396413326,6.5790658,-0.7205387354,8.539587792,8.539587791865124
5.902777932,-5.04676199,6.423233509,-0.5362913609,8.186289985,8.186289985006956
5.905284026,-4.728217602,6.274878502,-0.375972271,7.865843696,7.865843696342134
5.907790172,-4.405186653,6.119344711,-0.2033899277,7.542772475,7.54277247452837
5.910296266,-4.108177185,5.942276001,-0.0239282269,7.224149529,7.2241495288689626
5.912802359,-3.804288864,5.788836002,0.1507478207,6.92863341,6.9286334095730275
5.915308505,-3.504886866,5.628517151,0.2679961324,6.635982157,6.635982157114484
5.917814599,-3.208176851,5.482554913,0.3424727321,6.361453816,6.361453816038026
5.920320693,-2.949453115,5.324329376,0.3783650696,6.098435628,6.098435627897794
5.922826786,-2.676671267,5.183153152,0.3544368446,5.84425112,5.844251119303562
5.925332932,-2.427518606,5.013262749,0.2560320199,5.575948562,5.575948562191127
5.927839026,-2.188236237,4.843372345,0.1172483116,5.316049348,5.3160493477585185
5.93034512,-1.955833435,4.692325115,-0.05982056633,5.083972651,5.083972650445683
5.932851266,-1.730908036,4.534399033,-0.2799602449,4.861604155,4.861604154832557
5.935357359,-1.51555407,4.383651257,-0.5027918816,4.665415539,4.665415539723564
5.937863453,-1.316650629,4.225724697,-0.7612167001,4.491076592,4.491076592332063
5.940369547,-1.118046403,4.091427803,-1.017547846,4.361790096,4.361790096430808
5.942875693,-0.9194421172,3.957429647,-1.237687469,4.247174766,4.247174765506523
5.945381786,-0.737288475,3.840181351,-1.450947881,4.170831674,4.170831674536195
5.94788788,-0.5865406394,3.725325823,-1.623231053,4.105723013,4.105723013136892
5.950394026,-0.4310071766,3.631706476,-1.778764486,4.066824586,4.06682458568794
5.95290012,-0.2703889608,3.54556489,-1.912762642,4.037672783,4.03767278317028
5.955406214,-0.1052841991,3.459423304,-2.044667006,4.019870336,4.019870336747618
5.957912359,0.0382851623,3.390031576,-2.152343988,4.015764496,4.015764495411693
5.960418453,0.1698904037,3.339782238,-2.23130703,4.020166565,4.020166564790203
5.962924547,0.2994019389,3.303889751,-2.295913219,4.034420221,4.034420220670977
5.965430641,0.4046861231,3.263211966,-2.319841623,4.024175487,4.0241754868641815
5.967936734,0.5219344497,3.246462107,-2.355733871,4.044924456,4.044924455777532
5.97044288,0.6391827464,3.244069338,-2.350948334,4.057030752,4.057030751939721
5.972948974,0.766002357,3.260818958,-2.367697954,4.101913394,4.101913393668563
5.97545512,0.8835497499,3.303889751,-2.374876499,4.163698601,4.163698600140708
5.977961214,0.97926265,3.363710403,-2.394019127,4.24320994,4.243209939818826
5.980467307,1.053440213,3.425923824,-2.427518606,4.328918677,4.3289186770708055
5.982973401,1.127617717,3.502494097,-2.508874655,4.453474896,4.453474896046177
5.985479547,1.208973646,3.5766716,-2.628814697,4.600528636,4.600528635073615
5.987985641,1.292722464,3.638885021,-2.825026274,4.784703649,4.784703649525091
5.990491734,1.364507079,3.696611881,-3.073879719,4.997554952,4.997554951600931
5.992997828,1.429412484,3.742075443,-3.397209883,5.252369338,5.252369337705753
5.995503974,1.517946839,3.766003847,-3.722932816,5.508827129,5.508827128717925
5.998010068,1.592124343,3.811467409,-4.072285175,5.800487073,5.800487072648911
6.000516161,1.673480392,3.833002806,-4.390829563,6.063978181,6.063978181402628
6.003022307,1.762014747,3.861716747,-4.689932346,6.32558437,6.325584369270779
6.005528401,1.864906192,3.907180309,-4.9319067,6.562593753,6.562593753197143
6.008034495,1.97527504,3.957429647,-5.132903576,6.775666758,6.775666757974092
6.010540641,2.092523336,4.012464523,-5.293222904,6.963959662,6.96395966182088
6.013046734,2.250449657,4.077070713,-5.405984402,7.135243276,7.135243276312381
6.015552828,2.39162612,4.132105827,-5.482554913,7.269978159,7.269978159351928
6.018058922,2.542673111,4.196712017,-5.597410202,7.443693927,7.44369392657223
6.020565068,2.714956284,4.271188259,-5.702694416,7.624615424,7.624615424408507
6.023071161,2.915953398,4.378865242,-5.784050465,7.818726546,7.818726546476106
6.025577255,3.114856958,4.488935471,-5.793622017,7.963600417,7.963600417365888
6.028083401,3.344567776,4.670789719,-5.697908878,8.091265401,8.091265400996615
6.030589495,3.579064369,4.888835907,-5.504090309,8.185684358,8.185684358234539
6.033095589,3.806681633,5.168796062,-5.204688549,8.26414307,8.264143069771842
6.035601682,4.026821613,5.492125988,-4.797908306,8.330586071,8.330586070845957
6.038107828,4.218546391,5.846263885,-4.256831646,8.372308566,8.372308566247513
6.040613922,4.393222332,6.229414463,-3.643670797,8.448807247,8.448807246418143
6.043120016,4.541577339,6.658029079,-2.970988512,8.589647763,8.589647762356957
6.045626161,4.630111694,7.127321243,-2.250449657,8.79210817,8.792108169177972
6.048132255,4.52482748,7.649255753,-1.5011971,9.01325524,9.01325524056737
6.050638349,4.144069672,8.185546875,-0.7109674215,9.202280465,9.202280465387197
6.053144443,3.614956856,8.731410027,0.1483550072,9.451319661,9.451319661216568
6.055650589,2.978166819,9.200403214,0.8401798606,9.7068429,9.706842900765002
6.058156682,2.233700037,9.619445801,1.335793257,9.965314696,9.965314696441704
6.060662776,1.43659091,9.981060982,1.66151619,10.21988296,10.219882965021153
6.06316887,0.579362154,10.34237766,1.8840487,10.52853626,10.528536254937165
6.065675016,-0.2922234535,10.69442177,2.042274237,10.89159931,10.891599313256952
6.068181109,-1.177866936,11.02253723,2.145165443,11.2909447,11.290944702880244
6.070687255,-2.066202402,11.38385391,2.248056889,11.78622425,11.786224246400252
6.073193349,-2.920739174,11.75504017,2.279163599,12.3250263,12.325026305523995
6.075699443,-3.684647799,12.17169094,2.240878344,12.91310286,12.913102860821708
6.078205536,-4.491328239,12.52104282,2.104487419,13.46764308,13.467643073212242
6.08071163,-5.293222904,12.82044506,1.907976985,14.00079985,14.000799849408544
6.083217776,-6.128916264,13.07408428,1.651944876,14.53355484,14.533554837169378
6.08572387,-7.002595425,13.33759308,1.357328653,15.12514704,15.12514703816626
6.088229964,-7.888537884,13.58405399,1.10608232,15.74734806,15.747348057662112
6.090736109,-8.805587769,13.86670589,0.9361918569,16.45297431,16.452974302242406
6.093242203,-9.741479874,14.1993084,0.9529415965,17.24601075,17.246010752060823
6.095748297,-10.72074318,14.55613804,1.17068851,18.11590463,18.11590462986868
6.098254391,-11.73111248,14.94407463,1.558624864,19.06236287,19.06236286592248
6.100760536,-12.77258778,15.29103374,2.015953064,20.02545326,20.025453258088184
6.10326663,-13.84038544,15.61915016,2.542673111,21.02330391,21.023303912510862
6.105772724,-14.91775322,15.91825294,3.220141172,22.05219824,22.0521982342407
6.10827887,-15.99272919,16.1578331,4.000500202,23.08347806,23.08347805895671
6.110784964,-17.04586983,16.34926033,4.888835907,24.11971617,24.11971617007523
6.113291057,-18.09452438,16.46172333,5.755336761,25.13014224,25.130142235260003
6.115797203,-19.10728645,16.47847176,6.483353138,26.05114767,26.051147670294405
6.118303297,-20.04587173,16.37318802,7.017251492,26.81716014,26.817160137789777
6.120809391,-20.95544434,16.14108467,7.364210606,27.45718229,27.457182296449684
6.123315484,-21.76960182,15.72682667,7.46949482,27.87547297,27.87547297133409
6.12582163,-22.48774719,15.2288208,7.424031258,28.15549674,28.155496741482413
6.128327724,-23.14846611,14.63749409,7.380960464,28.36523037,28.365230368388243
6.130833818,-23.71347046,13.95045471,7.35463953,28.47866904,28.478669043501533
6.133339964,-24.15644264,13.16979694,7.364210606,28.48172871,28.48172870999874
6.135846057,-24.47259331,12.3607235,7.474280834,28.41760339,28.417603395529483
6.138352151,-24.67119789,11.56600761,7.618149281,28.29269757,28.292697570746398
6.140858297,-24.70709038,10.73749256,7.670791149,28.01026773,28.010267731193156
6.143364391,-24.51327133,9.923633575,7.558029652,27.50459574,27.50459574052268
6.145870484,-24.04876518,9.224330902,7.29003334,26.76893673,26.768936724694242
6.148376578,-23.43111801,8.695218086,6.981060028,25.94916777,25.94916776846971
6.150882724,-22.67917252,8.324331284,6.650850773,25.05739758,25.05739758080274
6.153388818,-21.88445663,8.099106789,6.308377743,24.17272435,24.172724350357257
6.155894911,-21.16391754,7.948358536,5.927918911,23.37152181,23.371521809076
6.158401005,-20.51277161,7.802396297,5.427519798,22.60772342,22.60772342048494
6.160907151,-19.93580246,7.649255753,4.855336189,21.89798216,21.897982162910782
6.163413245,-19.47607994,7.464709282,4.216153622,21.27946254,21.279462536876988
6.165919339,-19.12882233,7.237390995,3.526422262,20.75397133,20.75397133363017
6.168425484,-18.87757683,6.935596466,2.844168901,20.31144264,20.31144263830514
6.170931578,-18.73610115,6.591030121,2.169093609,19.97969298,19.979692976709256
6.173437672,-18.69781494,6.203093529,1.565803289,19.76204425,19.762044246480478
6.175943766,-18.71935081,5.760122299,1.079761267,19.61527436,19.615274355486292
6.178449911,-18.83211327,5.281258583,0.7181459069,19.57181432,19.571814325151834
6.180956005,-18.98525238,4.768895626,0.4621138871,19.58049342,19.580493422501593
6.183462099,-19.12643051,4.242474556,0.3065803945,19.59369608,19.59369607681149
6.185968245,-19.25803566,3.727718592,0.2416750938,19.61698831,19.616988306922583
6.188474339,-19.35374832,3.236890793,0.2344966233,19.62396557,19.623965570344087
6.190980432,-19.43061638,2.760420084,0.294616282,19.62792833,19.627928334403872
6.193486578,-19.45454597,2.305484533,0.4549354017,19.59595836,19.59595836009215
6.195992672,-19.40668869,1.891227245,0.6487540603,19.50941281,19.509412811090954
6.198498766,-19.29631996,1.494018674,0.8811569214,19.37411916,19.374119162353843
6.201004859,-19.1503582,1.120439172,1.108475089,19.21510656,19.215106560968973
6.203511005,-18.91586113,0.7683951855,1.412662625,18.98409464,18.984094635842297
6.206017099,-18.58296013,0.4549354017,1.745265007,18.67027914,18.670279145142644
6.208523193,-18.19980812,0.1603191197,2.078166485,18.31877435,18.318774352132202
6.211029286,-17.72124481,-0.1411765367,2.434697151,17.88826986,17.888269861771267
6.213535432,-17.20648766,-0.4190430641,2.769991398,17.43306246,17.433062468433267
6.216041526,-16.64626884,-0.6726822853,3.045166016,16.93587329,16.935873281750567
6.21854762,-16.06451416,-0.955334425,3.241676569,16.41614285,16.416142848989658
6.221053766,-15.43250942,-1.242473125,3.39960289,15.85128974,15.85128973536325
6.223559859,-14.80020618,-1.48444736,3.526422262,15.28677013,15.286770126650376
6.226065953,-14.18734455,-1.728515267,3.626920938,14.74527266,14.745272662761092
6.228572099,-13.57926846,-1.970489502,3.679862022,14.20636284,14.20636284511982
6.231078193,-12.97837067,-2.200200319,3.732504129,13.6824915,13.682491504278234
6.233584286,-12.39422321,-2.389233351,3.754039526,13.1688275,13.168827500867483
6.23609038,-11.83639622,-2.508874655,3.77796793,12.67547905,12.675479051753435
6.238596526,-11.30489063,-2.62402916,3.782753468,12.2063633,12.206363299052594
6.24110262,-10.75663471,-2.75084877,3.775574923,11.7272045,11.727204493781702
6.243608714,-10.21795082,-2.851347208,3.727718592,11.24422455,11.24422455137083
6.246114859,-9.676874161,-2.94227457,3.617349625,10.74169872,10.741698724251476
6.248620953,-9.150154114,-3.014059305,3.485744476,10.24501285,10.245012852894462
6.251127047,-8.601898193,-3.107678413,3.313461065,9.727761401,9.727761400786607
6.253633193,-8.070392609,-3.174677372,3.117249727,9.215587835,9.215587834759768
6.256139286,-7.560422421,-3.267997503,2.930310488,8.742225942,8.742225941924433
6.25864538,-7.053143978,-3.346960783,2.772384167,8.284630374,8.284630373575512
6.261151474,-6.5288167,-3.428316593,2.65513587,7.837636675,7.837636675184598
6.26365762,-5.999703884,-3.49531579,2.533101797,7.391230201,7.391230200817225
6.266163714,-5.494519234,-3.557528973,2.394019127,6.969726076,6.969726076896583
6.268669807,-4.9821558,-3.653541088,2.236092806,6.570414746,6.570414745982389
6.271175953,-4.467400074,-3.758825302,2.078166485,6.197193479,6.197193478624647
6.273682047,-3.978965044,-3.928715706,1.8840487,5.900560094,5.900560094085704
6.276188141,-3.492922783,-4.09860611,1.67587316,5.63982557,5.639825570116348
6.278694286,-3.030808926,-4.29750967,1.5011971,5.468819328,5.468819328037195
6.28120038,-2.592922449,-4.520041943,1.371685624,5.388464293,5.38846429366435
6.283706474,-2.169093609,-4.737788677,1.24965167,5.35847347,5.35847347001437
6.286212568,-1.74047935,-5.003691196,1.127617717,5.416430159,5.416430159098945
6.288718714,-1.340578914,-5.271687508,1.019940615,5.53426778,5.534267780365462
6.291224807,-0.9649057388,-5.50169754,0.9816554785,5.671275552,5.671275551838431
6.293730901,-0.6272186637,-5.724229813,1.012762189,5.84687074,5.846870740455932
6.296236995,-0.323330164,-5.966204166,1.10608232,6.076475348,6.076475347104159
6.298743141,-0.0382851623,-6.198307991,1.189831018,6.311591365,6.311591364809806
6.301249234,0.2608176768,-6.418447495,1.259222865,6.546001552,6.54600155288264
6.303755328,0.5602195859,-6.686742783,1.316650629,6.838124297,6.8381242975888235
6.306261474,0.8401798606,-6.937989235,1.381256819,7.123866031,7.123866030686409
6.308767568,1.098903775,-7.16321373,1.450947881,7.390836908,7.390836908073953
6.311273661,1.338186026,-7.364210606,1.558624864,7.645367954,7.645367954283403
6.313779807,1.534696579,-7.536494255,1.733300924,7.88405805,7.884058050165636
6.316285901,1.70937264,-7.680362701,1.943869352,8.104847568,8.104847567902649
6.318791995,1.876870275,-7.802396297,2.216950178,8.325556924,8.325556924095356
6.321298089,2.030309916,-7.867002487,2.494517565,8.499088443,8.49908844333118
6.323804234,2.169093609,-7.919644833,2.808276415,8.678257762,8.678257762276568
6.326310328,2.300698996,-7.945965767,3.124428272,8.842716769,8.842716769602214
6.328816422,2.417947292,-7.926823139,3.473780155,8.985997037,8.985997037009737
6.331322568,2.513660192,-7.855038643,3.856930971,9.104726034,9.104726034259777
6.333828661,2.578565598,-7.764111042,4.287938118,9.236711218,9.236711217716662
6.336334755,2.65513587,-7.675576687,4.675575256,9.371511508,9.371511507793075
6.338840849,2.676671267,-7.476673603,5.041976452,9.406739274,9.40673927457878
6.341346995,2.533101797,-6.983452797,5.554339409,9.275554105,9.275554104864153
6.343853089,2.216950178,-6.375376701,6.128916264,9.117231528,9.117231528403323
6.346359182,1.819442511,-5.769693375,6.622136593,8.969527621,8.969527621268721
6.348865328,1.390828133,-5.221437931,6.890132904,8.75624054,8.75624054018694
6.351371422,0.9840483069,-4.754538536,6.890132904,8.428992775,8.428992774667993
6.353877516,0.5745765567,-4.381258488,6.660421848,7.992920827,7.992920827300682
6.356383661,0.2009970993,-4.120141506,6.27966404,7.51333124,7.513331239780401
6.358889755,-0.1722832322,-3.971786499,5.851049423,7.073863786,7.07386378552235
6.361395849,-0.5171487927,-3.847359657,5.429912567,6.674846043,6.67484604237182
6.363901943,-0.8524430394,-3.725325823,5.013262749,6.303769905,6.303769904861944
6.366408089,-1.175474167,-3.598206997,4.658825874,6.002790321,6.002790320742177
6.368914182,-1.441376567,-3.447459221,4.326223373,5.716533055,5.716533054347376
6.371420276,-1.654337764,-3.275176048,4.012464523,5.437231201,5.437231200815636
6.373926422,-1.833799481,-3.040380239,3.722932816,5.144605066,5.14460506615107
6.376432516,-1.943869352,-2.767598391,3.49531579,4.863688043,4.86368804338169
6.378938609,-2.015953064,-2.449054003,3.361317635,4.621730034,4.62173003422131
6.381444703,-2.063809633,-2.109273195,3.421138287,4.518022885,4.518022885199498
6.383950849,-2.133201361,-1.773978829,3.409173965,4.395454022,4.395454021593934
6.386456943,-2.14995122,-1.438983679,3.375674486,4.253015696,4.2530156962135965
6.388963036,-2.195414782,-1.137188911,3.282354355,4.109366715,4.109366714727822
6.391469182,-2.219342947,-0.7731808424,3.117249727,3.903913113,3.903913112754252
6.393975276,-2.257628202,-0.4692923427,3.12921381,3.88704251,3.8870425094250414
6.39648137,-2.303091764,-0.2344966233,3.275176048,4.010735405,4.010735404528281
6.398987516,-2.37248373,0.01674975827,3.485744476,4.216559517,4.216559516416355
6.401493609,-2.51844573,0.2679961324,3.708575964,4.490871464,4.490871463613173
6.403999703,-2.710170746,0.4980062246,3.931108475,4.800692607,4.80069260778394
6.406505797,-2.978166819,0.6942176819,4.120141506,5.130982539,5.1309825395453394
6.409011943,-3.270390272,0.8500502706,4.352544308,5.51023411,5.510234109985035
6.411518036,-3.626920938,0.9337990284,4.596612453,5.92919743,5.929197429586761
6.41402413,-4.053142548,0.9984052777,4.829015255,6.383115692,6.3831156926668555
6.416530276,-4.505684853,1.05822587,5.068297386,6.863576063,6.863576063498191
6.41903637,-5.010869503,1.125224829,5.413163185,7.461720965,7.4617209649874265
6.421542464,-5.539982796,1.220937729,5.843871117,8.144502928,8.144502928366991
6.424048557,-6.07148838,1.386042476,6.301199436,8.85941303,8.859413029427964
6.426554703,-6.581458569,1.671087503,6.710670948,9.546791865,9.546791864834884
6.429060797,-7.060322285,2.044667006,7.129714012,10.24019706,10.2401970599399
6.431566891,-7.569993496,2.42273283,7.46949482,10.90723561,10.90723561499654
6.434073036,-8.044071198,2.758027315,7.709076405,11.47796389,11.477963892908315
6.43657913,-8.520542145,3.023630619,7.859824181,11.97993392,11.979933919730435
6.439085224,-8.994620323,3.131606579,7.883752346,12.36380627,12.363806273701526
6.441591318,-9.502198219,3.133999348,7.843074322,12.71328194,12.713281941609214
6.444097464,-10.12941647,3.033201694,7.859824181,13.17506078,13.175060785264865
6.446603557,-10.84038353,2.839383125,7.900502205,13.71108846,13.711088457859203
6.449109651,-11.64497089,2.597707987,7.869395256,14.29268399,14.292683985516026
6.451615797,-12.52104282,2.269592285,7.768897057,14.90916913,14.909169122478568
6.454121891,-13.45723438,1.819442511,7.606184959,15.56475435,15.564754345623506
6.456627984,-14.47478199,1.321436286,7.220641613,16.22970033,16.229700330547484
6.459134078,-15.57847214,0.7348956466,6.660421848,16.95848121,16.958481212109284
6.461640224,-16.74437523,0.0933200866,5.899205208,17.75340622,17.753406224375503
6.464146318,-17.99402618,-0.632004261,5.1233325,18.71985426,18.719854258460554
6.466652411,-19.34656906,-1.393221021,4.29750967,19.86704277,19.867042773660327
6.469158557,-20.74726868,-2.188236237,3.425923824,21.1417712,21.14177120198021
6.471664651,-22.14288139,-2.930310488,2.528316259,22.47857422,22.478574218869287
6.474170745,-23.36890411,-3.454637766,2.082952023,23.71452911,23.714529101940187
6.476676891,-24.55873489,-3.87368083,2.032702923,24.94531507,24.94531506602363
6.479182984,-25.66960335,-4.386044025,1.36211431,26.07721752,26.07721752275492
6.481689078,-26.66322327,-4.793122768,0.5673980713,27.09655774,27.096557744228406
6.484195224,-27.64936447,-5.10897541,-0.1052841991,28.11761139,28.117611386770804
6.486701318,-28.66212654,-5.295615673,-0.7253243923,29.15625385,29.156253851020725
6.489207411,-29.62463951,-5.334199905,-1.197009563,30.12483671,30.124836706907946
6.491713505,-30.56531906,-5.254937649,-1.402792215,31.04546545,31.045465448804944
6.494219651,-31.4991169,-4.99651289,-1.386042476,31.92304215,31.92304215273159
6.496725745,-32.4281311,-4.620540619,-1.242473125,32.77921326,32.779213256528344
6.499231839,-33.37120056,-4.165605068,-1.046261668,33.64645533,33.646455324093466
6.501737984,-34.24757385,-3.593421459,-0.8524430394,34.4461268,34.44612680010086
6.504244078,-35.10719299,-2.949453115,-0.6200401783,35.23632676,35.23632675432266
6.506750172,-35.92823029,-2.216950178,-0.4357928336,35.99920159,35.99920159193569
6.509256266,-36.67030716,-1.448554993,-0.3376871049,36.7004601,36.70046009735175
6.511762411,-37.31188202,-0.6463612318,-0.3352942765,37.31898639,37.318986387202784
6.514268505,-37.8673172,0.1651047617,-0.50518471,37.87104676,37.871046765292476
6.516774599,-38.37010574,0.9744769931,-0.9122636318,38.39331771,38.3933177108044
6.519280745,-38.78197098,1.678265929,-1.553839207,38.84935348,38.84935348114836
6.521786839,-39.12444305,2.329412937,-2.298306227,39.26105475,39.261054750437154
6.524292932,-39.3924408,2.956631422,-2.987738132,39.61606543,39.61606543679558
6.526799078,-39.57698822,3.607778311,-3.547957659,39.89914867,39.89914866832871
6.529305172,-39.57938004,4.33340168,-3.85932374,40.00250084,40.00250084933572
6.531811266,-39.3421936,4.951049328,-3.957429647,39.84949606,39.8494960585341
6.534317359,-38.56661987,5.336592674,-4.077070713,39.14697811,39.1469781102459
6.536823505,-37.37918091,5.55194664,-4.110570431,38.01215682,38.012156822050066
6.539329599,-35.93540955,5.561518192,-4.024428368,36.58524522,36.58524522010672
6.541835693,-34.39353561,5.446662426,-3.844966888,35.03377219,35.033772187832625
6.544341839,-32.78705597,5.250152111,-3.651148319,33.40488019,33.40488018861745
6.546847932,-31.09203911,5.020441055,-3.425923824,31.680541,31.6805410063078
6.549354026,-29.36830902,4.807479858,-3.126821041,29.92300866,29.92300865724784
6.55186012,-27.65654373,4.608576298,-2.753241539,28.17274793,28.172747923409332
6.554366266,-25.9519558,4.424329281,-2.329412937,26.42924259,26.42924259344052
6.556872359,-24.28326225,4.321437836,-1.862513304,24.73500771,24.735007707301495
6.559378453,-22.65763855,4.247260094,-1.354935765,23.09206907,23.092069069180596
6.561884599,-21.08016968,4.201497555,-0.8548358679,21.51178467,21.511784672669783
6.564390693,-19.57658005,4.165605068,-0.3448655605,20.01783415,20.017834155857727
6.566896786,-18.13041687,4.141676903,0.1004985496,18.59773114,18.597731136009468
6.569402932,-16.77308846,4.120141506,0.4477569461,17.2775157,17.277515701026868
6.571909026,-15.49711609,4.079463482,0.6966105103,16.04019624,16.040196246024202
6.57441512,-14.31446362,4.012464523,0.8476574421,14.89034128,14.890341279359069
6.576921266,-13.19641685,3.95503664,0.8596215248,13.80314029,13.803140282870629
6.579427359,-12.12622738,3.871287823,0.7468597889,12.75108071,12.751080715933277
6.581933453,-11.13021469,3.811467409,0.5362913609,11.77695085,11.776950848124354
6.584439547,-10.20837975,3.718147278,0.2536391914,10.86738097,10.86738096969656
6.586945693,-9.325128555,3.619742393,-0.1435693651,10.00405766,10.00405766284626
6.589451786,-8.489435196,3.543172121,-0.5673980713,9.216643597,9.216643597179516
6.59195788,-7.709076405,3.454637766,-1.05822587,8.513766681,8.513766681342545
6.594464026,-6.959524632,3.390031576,-1.563410521,7.897566058,7.897566058404657
6.59697012,-6.229414463,3.330210924,-2.056631088,7.357013034,7.357013033989445
6.599476214,-5.539982796,3.325425386,-2.499303341,6.927942015,6.927942015358023
6.601982307,-4.888835907,3.349353552,-2.927917719,6.609961264,6.609961263963783
6.604488453,-4.225724697,3.411566973,-3.279961586,6.344579295,6.3445792950940225
6.606994547,-3.62452817,3.488137245,-3.581457376,6.17504193,6.1750419295082155
6.609500641,-3.035594702,3.600599766,-3.835395575,6.073665539,6.073665539561699
6.612006786,-2.465803623,3.706183195,-4.04835701,6.017073696,6.017073695951917
6.61451288,-1.907976985,3.840181351,-4.203890324,6.00500315,6.00500315071347
6.617018974,-1.371685624,3.93828702,-4.352544308,6.027957204,6.027957204235275
6.61952512,-0.8377870321,4.060320854,-4.462614059,6.091224573,6.0912245721338065
6.622031214,-0.347258389,4.172783375,-4.52482748,6.164963358,6.164963358136885
6.624537307,0.1507478207,4.307080746,-4.563112736,6.276596792,6.276596792805407
6.627043401,0.6248258352,4.448257446,-4.565505505,6.404782756,6.404782755598595
6.629549547,1.053440213,4.570291042,-4.515256405,6.510363807,6.5103638065659934
6.632055641,1.479661703,4.687539577,-4.386044025,6.587853083,6.587853082037
6.634561734,1.872084618,4.809872627,-4.225724697,6.670556553,6.670556552473851
6.63706788,2.252842426,4.907978535,-4.041178226,6.744973962,6.7449739621960605
6.639573974,2.602493763,5.008476734,-3.864109516,6.840259888,6.8402598878343035
6.642080068,2.937488794,5.087440014,-3.648755312,6.915511669,6.915511668544282
6.644586161,3.232105255,5.204688549,-3.452244759,7.032302692,7.032302691688783
6.647092307,3.521636724,5.281258583,-3.244069338,7.128646667,7.1286466672215125
6.649598401,3.758825302,5.367699623,-3.014059305,7.212871855,7.212871854384134
6.652104495,3.993321896,5.432305813,-2.796312332,7.29903616,7.299036160283213
6.654610641,4.165605068,5.475376606,-2.597707987,7.353917415,7.353917414943069
6.657116734,4.314259052,5.48734045,-2.449054003,7.397405079,7.397405078240643
6.659622828,4.409972191,5.477769375,-2.310270309,7.40210517,7.402105170269346
6.662128974,4.498506546,5.439484119,-2.214557409,7.39789248,7.397892479822538
6.664635068,4.541577339,5.394020557,-2.147558212,7.371118557,7.371118556188439
6.667141161,4.532006264,5.343770981,-2.080559254,7.309151516,7.309151515991303
6.669647307,4.503292084,5.25254488,-2.049452543,7.215893779,7.215893779445513
6.672153401,4.429114819,5.140082359,-2.082952023,7.097618887,7.097618887155621
6.674659495,4.321437836,5.015655518,-2.16670084,6.96607621,6.966076210874592
6.677165589,4.156033993,4.860121727,-2.27677083,6.788010545,6.788010545407828
6.679671734,3.974179268,4.706682205,-2.413161755,6.615913232,6.615913231660415
6.682177828,3.761218071,4.520041943,-2.557030201,6.41217155,6.412171550490698
6.684683922,3.528815269,4.331008911,-2.746062994,6.225033121,6.225033120948449
6.687190068,3.294318676,4.156033993,-2.970988512,6.078809655,6.078809655553453
6.689696161,3.073879719,3.988536358,-3.215355396,5.974585268,5.974585268330659
6.692202255,2.839383125,3.797110319,-3.401995659,5.835556338,5.835556337577925
6.694708349,2.612065077,3.636492252,-3.557528973,5.718651262,5.7186512622360075
6.697214495,2.396411896,3.502494097,-3.675076485,5.613950662,5.61395066289419
6.699720589,2.188236237,3.363710403,-3.775574923,5.509799588,5.509799588311429
6.702226682,1.98963201,3.246462107,-3.907180309,5.455658504,5.4556585041991825
6.704732828,1.824228168,3.12921381,-4.062713623,5.442924716,5.442924715640401
6.707238922,1.685444474,3.061915636,-4.240081787,5.494938034,5.4949380339879665
6.709745016,1.577767372,2.997309446,-4.433900356,5.579667209,5.57966720890821
6.712251161,1.522732496,2.930310488,-4.622933388,5.681280394,5.681280394448275
6.714757255,1.470090389,2.930310488,-4.785944462,5.801133484,5.801133484178885
6.717263349,1.443769336,2.935096025,-4.879264355,5.874221584,5.874221583964828
6.719769495,1.458126307,2.985345364,-4.9319067,5.946606004,5.946606004018312
6.722275589,1.520339727,3.081058264,-4.960620403,6.034244584,6.034244583567774
6.724781682,1.654337764,3.234498024,-4.955834866,6.14484419,6.144844190353215
6.727287776,1.867298961,3.485744476,-4.927121162,6.317732419,6.317732418102591
6.729793922,2.068595171,3.811467409,-4.740181446,6.424615937,6.4246159365643285
6.732300016,2.176272154,4.110570431,-4.448257446,6.435832818,6.435832818088252
6.734806109,2.248056889,4.340580463,-4.278367043,6.496062121,6.496062121515328
6.737312255,2.26241374,4.512863636,-4.338187218,6.656149222,6.656149222072061
6.739818349,2.224128723,4.563112736,-4.517649174,6.795432324,6.79543232452961
6.742324443,2.10209465,4.570291042,-4.687539577,6.876000976,6.876000975282465
6.744830589,1.8840487,4.55354166,-4.694717884,6.806229291,6.806229291147682
6.747336682,1.582553029,4.610969067,-4.560719967,6.675752874,6.675752874681657
6.749842776,1.204187989,4.677968502,-4.34775877,6.498958712,6.49895871202979
6.75234887,0.8138588071,4.766502857,-4.141676903,6.366741962,6.366741962144145
6.754855016,0.4142574072,4.862514496,-3.940679789,6.272528487,6.272528487194243
6.757361109,-0.004785645287,4.965405941,-3.797110319,6.250866007,6.250866006880582
6.759867203,-0.4692923427,5.089832783,-3.643670797,6.277178501,6.277178501423151
6.762373349,-0.9409775138,5.23818779,-3.440280676,6.337158759,6.337158758816235
6.764879443,-1.434198022,5.396413326,-3.239283562,6.455320189,6.4553201892998695
6.767385536,-1.970489502,5.571089268,-2.992523909,6.623825469,6.623825469881707
6.76989163,-2.528316259,5.760122299,-2.68624258,6.840123625,6.84012362487447
6.772397776,-3.061915636,5.992525101,-2.425125837,7.153105603,7.153105603399219
6.77490387,-3.557528973,6.262914181,-2.137987137,7.513394401,7.513394401353013
6.777409964,-4.072285175,6.483353138,-1.742872238,7.852068396,7.852068396068029
6.779916109,-4.610969067,6.686742783,-1.37886405,8.23861826,8.238618261044495
6.782422203,-5.164010525,6.935596466,-1.115653515,8.718611461,8.718611460951468
6.784928297,-5.750551224,7.16321373,-0.9242277741,9.232262306,9.232262306711515
6.787434443,-6.365805626,7.40488863,-0.6343970895,9.785617842,9.785617842419692
6.789940536,-7.057929516,7.680362701,-0.308973223,10.4354111,10.435411095125433
6.79244663,-7.790432453,7.926823139,0.02871387079,11.11423355,11.114233548388173
6.794952724,-8.542078018,8.159226418,0.3831507266,11.8189203,11.818920301156192
6.79745887,-9.329915047,8.384151459,0.7995018363,12.56902994,12.569029941007217
6.799964964,-10.12463093,8.573184013,1.256830096,13.32618691,13.326186906976911
6.802471057,-10.96032429,8.760123253,1.745265007,14.13910951,14.139109515608611
6.804977203,-11.83400345,8.939585686,2.329412937,15.01286097,15.01286097061486
6.807483297,-12.72233868,9.09990406,2.994916677,15.92594365,15.92594365467872
6.809989391,-13.67258835,9.277272224,3.79471755,16.95309215,16.95309214836738
6.812495536,-14.63749409,9.461520195,4.704289436,18.05289275,18.052892752488145
6.81500163,-15.62632847,9.672088623,5.721837044,19.24761956,19.247619565587566
6.817507724,-16.62712669,9.859027863,6.748956203,20.47462289,20.474622882942995
6.820013818,-17.6132679,10.05763149,7.725826263,21.70418275,21.704182747845415
6.822519964,-18.57578087,10.26341438,8.618648529,22.90585978,22.90585977718982
6.825026057,-19.49043846,10.44317532,9.248259544,23.96804971,23.968049706233742
6.827532151,-20.38325882,10.60349464,9.562018394,24.88661356,24.886613559719425
6.830038297,-21.19981003,10.70638561,9.612267494,25.62136461,25.6213646106977
6.832544391,-21.97538376,10.70638561,9.444769859,26.20587457,26.205874568858825
6.835050484,-22.71985054,10.61067295,9.087940216,26.67149502,26.671495015866473
6.83755663,-23.44786644,10.39053345,8.47986412,27.01247344,27.012473442047295
6.840062724,-24.1516571,10.06720352,7.778468132,27.29754007,27.297540069933415
6.842568818,-24.7980175,9.657731056,6.99063158,27.51512986,27.51512985554723
6.845074911,-25.42045021,9.138189316,6.128916264,27.69962829,27.69962829038089
6.847581057,-25.99741936,8.551649094,5.290830135,27.87452957,27.87452957673076
6.850087151,-26.55285454,7.893323898,4.536791801,28.07028903,28.070289029982522
6.852593245,-27.04607391,7.184749126,3.854538202,28.2483309,28.24833090112437
6.855099391,-27.48426056,6.488138676,3.251247883,28.42624025,28.426240250966895
6.857605484,-27.884161,5.786443233,2.769991398,28.6126233,28.612623303493972
6.860111578,-28.22872734,5.04676199,2.386840582,28.77547327,28.77547326776146
6.862617724,-28.5185585,4.350151539,2.07098794,28.92267257,28.922672566307075
6.865123818,-28.74348259,3.670290947,1.824228168,29.03423213,29.034232131161794
6.867629911,-28.93281555,3.057130098,1.678265929,29.14224488,29.142244879467704
6.870136057,-29.1146698,2.477767944,1.673480392,29.26779575,29.267795751811487
6.872642151,-29.23670387,1.994417667,1.790728688,29.35931308,29.3593130751818
6.875148245,-29.34438133,1.553839207,2.068595171,29.45821139,29.458211383299354
6.877654339,-29.43530846,1.161117196,2.492124796,29.5634278,29.5634277998515
6.880160484,-29.53371239,0.818644464,3.069094181,29.70403483,29.704034833428363
6.882666578,-29.60549736,0.5291129351,3.694219112,29.83978367,29.839783666751394
6.885172672,-29.6222477,0.2464607358,4.314259052,29.93578348,29.935783485023574
6.887678818,-29.60788918,-0.08135596663,4.963013172,30.02107959,30.021079598074298
6.890184911,-29.548069,-0.423828721,5.657230854,30.08774291,30.087742908848366
6.892691005,-29.4161644,-0.7755736113,6.303592205,30.09397809,30.09397808734015
6.895197099,-29.20081139,-1.168295622,6.985845566,30.04753465,30.04753465372392
6.897703245,-28.7578392,-1.53230381,7.608577728,29.78677098,29.786770980793047
6.900209339,-27.93919563,-1.824228168,8.079963684,29.14124696,29.141246953332224
6.902715432,-26.88575554,-2.042274237,8.518149376,28.27673255,28.27673255182791
6.905221578,-25.69831657,-2.171486616,9.037691116,27.32761771,27.327617703774127
6.907727672,-24.47737885,-2.224128723,9.67926693,26.41546956,26.415469563214142
6.910233766,-23.26810646,-2.228914261,10.33041382,25.55563121,25.555631213281153
6.912739911,-22.13809586,-2.216950178,10.86431217,24.75971396,24.759713958878713
6.915246005,-21.06581306,-2.238485575,11.16849995,23.94816671,23.94816670815325
6.917752099,-20.05544281,-2.286342144,11.24507046,23.10627093,23.106270931393837
6.920258245,-19.13121605,-2.379662037,11.13021469,22.26090515,22.260905147985522
6.922764339,-18.2527504,-2.48733902,10.78774166,21.34771938,21.347719379081557
6.925270432,-17.38834381,-2.533101797,10.33998489,20.38838868,20.38838867331497
6.927776526,-16.5649128,-2.568994284,9.813264847,19.42411477,19.424114771597555
6.930282672,-15.73161221,-2.631207705,9.245866776,18.43618532,18.436185319968256
6.932788766,-14.94407463,-2.683849812,8.630612373,17.46470401,17.464704013906527
6.935294859,-14.15863037,-2.688635349,8.060821533,16.51279558,16.51279557740164
6.937801005,-13.39980698,-2.67188549,7.498209,15.5857928,15.585792805648683
6.940307099,-12.65294743,-2.614457846,6.940382004,14.66633461,14.666334608766485
6.942813193,-11.89143085,-2.542673111,6.380162239,13.73236267,13.732362666551436
6.945319339,-11.14696407,-2.482553482,5.796014786,12.806704,12.806703993158893
6.947825432,-10.39531898,-2.427518606,5.185545921,11.86783004,11.867830036583106
6.950331526,-9.657731056,-2.315055847,4.534399033,10.91751012,10.91751012434736
6.95283762,-8.937192917,-2.173879385,3.895216227,9.988587401,9.988587401193778
6.955343766,-8.183154106,-2.039881229,3.246462107,9.036849161,9.03684916124852
6.957849859,-7.424031258,-1.917548299,2.614457846,8.101149389,8.101149389270008
6.960355953,-6.660421848,-1.809871197,2.023131609,7.192351107,7.192351107279238
6.962862099,-5.915955067,-1.735693693,1.462911963,6.336502849,6.336502849535496
6.965368193,-5.180759907,-1.635195136,0.9672985673,5.518134002,5.518134002095032
6.967874286,-4.441078663,-1.575374603,0.5650052428,4.745968369,4.745968368533735
6.970380432,-3.742075443,-1.529910922,0.2488535494,4.050393085,4.050393084554574
6.972886526,-3.042773008,-1.556231976,0.08374879509,3.418675095,3.418675094538418
6.97539262,-2.432304144,-1.582553029,0.08614161611,2.903101431,2.9031014306328826
6.977898714,-1.838585138,-1.620838284,0.2799602449,2.466959626,2.4669596249795034
6.980404859,-1.26640141,-1.656730533,0.579362154,2.164298754,2.164298753802712
6.982910953,-0.7468597889,-1.680658817,0.9720842242,2.080231079,2.0802310790809053
6.985417047,-0.2512463629,-1.74047935,1.400399446,2.248001715,2.248001715080308
6.987923193,0.2153540403,-1.812264085,1.879263043,2.619600745,2.6196007446250356
6.990429286,0.6224330068,-1.907976985,2.355733871,3.094718258,3.094718257648089
6.99293538,0.9864411354,-2.044667006,2.786741018,3.594392129,3.594392129475848
6.995441526,1.304686546,-2.202593327,3.177070379,4.080122613,4.0801226134244475
6.99794762,1.563410521,-2.410768747,3.540779352,4.5599536,4.5599535993510925
7.000453714,1.802692771,-2.650350094,3.856930971,5.014974911,5.014974911446764
7.002959859,2.015953064,-2.937488794,4.124927044,5.450498169,5.450498168924483
7.005465953,2.19780755,-3.270390272,4.366901398,5.881805707,5.881805707253818
7.007972047,2.353341103,-3.605385542,4.560719967,6.271936373,6.271936373316009
7.010478141,2.477767944,-3.935894251,4.658825874,6.582951927,6.582951926272947
7.012984286,2.592922449,-4.259224415,4.704289436,6.855259189,6.8552591885005665
7.01549038,2.67188549,-4.610969067,4.711467743,7.113222624,7.1132226242282695
7.017996474,2.738884687,-4.924727917,4.673182487,7.320728717,7.320728716594117
7.02050262,2.784348249,-5.231009483,4.565505505,7.480634726,7.480634725685421
7.023008714,2.839383125,-5.554339409,4.431507587,7.651865282,7.651865282043574
7.025514807,2.875275612,-5.834300041,4.240081787,7.764313259,7.764313258352195
7.028020953,2.887239695,-6.104988098,4.069892406,7.884862518,7.884862518111639
7.030527047,2.906382322,-6.396912098,3.825824261,8.000279612,8.000279611815394
7.033033141,2.906382322,-6.631708145,3.550350666,8.06421732,8.064217319347247
7.035539286,2.906382322,-6.815955162,3.275176048,8.101301199,8.10130119903102
7.03804538,2.91116786,-7.004988194,3.014059305,8.162677955,8.162677955256685
7.040551474,2.91116786,-7.16321373,2.75084877,8.206929889,8.20692988919535
7.043057568,2.918346405,-7.29003334,2.461018085,8.229091193,8.229091192384796
7.045563714,2.937488794,-7.388139248,2.164308071,8.240004332,8.240004331850155
7.048069807,2.973381281,-7.452745438,1.90079844,8.246056361,8.246056361397091
7.050575901,3.021237612,-7.476673603,1.683051586,8.237790208,8.237790208247452
7.053082047,3.052344322,-7.450352192,1.517946839,8.193211596,8.193211595639095
7.055588141,3.124428272,-7.40488863,1.407876968,8.159445153,8.159445153109436
7.058094234,3.19382,-7.29003334,1.333400369,8.069884066,8.069884065757133
7.06060038,3.323032379,-7.158428192,1.316650629,8.001200363,8.001200363117329
7.063106474,3.442673683,-6.964310169,1.335793257,7.882763592,7.882763591730013
7.065612568,3.543172121,-6.717849731,1.402792215,7.72343186,7.723431859335137
7.068118661,3.672683716,-6.471388817,1.503589988,7.591328062,7.591328062373412
7.070624807,3.799503326,-6.253343105,1.632802367,7.497104047,7.4971040464179834
7.073130901,3.907180309,-6.047560215,1.769193292,7.414114069,7.41411406882481
7.075636995,3.983750582,-5.860620975,1.864906192,7.327688723,7.327688722725279
7.078143141,4.062713623,-5.750551224,1.919941068,7.297989796,7.297989796303545
7.080649234,4.151247978,-5.683551788,1.896012783,7.289066139,7.28906613874689
7.083155328,4.256831646,-5.606981754,1.764407635,7.257547406,7.257547406288317
7.085661474,4.338187218,-5.511268616,1.639980793,7.203019304,7.203019304259433
7.088167568,4.342973232,-5.355735302,1.556231976,7.068746359,7.068746358590215
7.090673661,4.304687977,-5.135296345,1.561017632,6.880289469,6.8802894690349765
7.093179755,4.220939159,-4.936692238,1.556231976,6.679005585,6.679005584653598
7.095685901,4.08424902,-4.761716843,1.496411443,6.449363112,6.449363112511358
7.098191995,3.868895054,-4.608576298,1.434198022,6.185810246,6.185810246011573
7.100698089,3.55992198,-4.510470867,1.462911963,5.929376304,5.929376304235663
7.103204234,3.174677372,-4.407579422,1.568196177,5.653721962,5.653721962308024
7.105710328,2.726920605,-4.371686935,1.702194214,5.426343869,5.426343869107296
7.108216422,2.255235434,-4.357329845,1.855334878,5.245443523,5.245443522755742
7.110722568,1.764407635,-4.374079704,2.015953064,5.129305442,5.129305441835377
7.113228661,1.220937729,-4.433900356,2.214557409,5.104353615,5.104353614591116
7.115734755,0.6798607111,-4.493721008,2.379662037,5.130158915,5.130158915138685
7.118240901,0.1339980662,-4.610969067,2.62402916,5.307025555,5.307025555912323
7.120746995,-0.4166502357,-4.819443703,2.868097067,5.623754601,5.623754600889803
7.123253089,-0.97926265,-5.058726311,3.114856958,6.020963469,6.020963469087792
7.125759182,-1.508375525,-5.37487793,3.351746321,6.511429404,6.511429404298041
7.128265328,-2.001596212,-5.690730572,3.600599766,7.025319958,7.0253199581163175
7.130771422,-2.39162612,-5.908776283,3.797110319,7.419673809,7.419673809209259
7.133277516,-2.784348249,-6.171987057,4.029214382,7.879123552,7.879123551487217
7.135783661,-3.177070379,-6.483353138,4.295116425,8.400932639,8.40093263926324
7.138289755,-3.600599766,-6.736992359,4.522434711,8.877150468,8.877150468219027
7.140795849,-4.081856251,-6.859025955,4.730610371,9.278279042,9.278279042333454
7.143301995,-4.608576298,-6.813562393,4.99651289,9.624383047,9.6243830471219
7.145808089,-5.209474087,-6.727420807,5.382056236,10.06793625,10.067936248558961
7.148314182,-5.874977589,-6.677171707,5.738586903,10.58448692,10.5844869180937
7.150820328,-6.586244106,-6.653243542,6.064310074,11.15437662,11.154376617570447
7.153326422,-7.378567696,-6.729813576,6.34187746,11.8301759,11.830175895979936
7.155832516,-8.231010437,-6.859025955,6.595815659,12.58175481,12.5817548089635
7.158338661,-9.162117958,-7.031608582,6.854240417,13.43013538,13.430135383561792
7.160844755,-10.21077251,-7.371389389,7.002595425,14.40949685,14.409496849698272
7.163350849,-11.36471081,-7.855038643,7.127321243,15.54532058,15.545320581412055
7.165856943,-12.63619709,-8.400900841,7.502994537,16.92759696,16.92759696058158
7.168363089,-14.12034512,-9.092725754,8.156833649,18.67071887,18.67071887000662
7.170869182,-15.86800289,-9.8638134,9.274879456,20.85933171,20.85933171102082
7.173375276,-17.84088516,-10.77817059,10.96750259,23.55317935,23.553179352713848
7.175881422,-19.84218216,-11.73111248,12.53300667,26.23751987,26.23751987287096
7.178387516,-21.79352951,-12.68644619,13.4907341,28.59901663,28.599016626309187
7.180893609,-23.605793,-13.64866066,13.39741421,30.38108142,30.381081423889285
7.183399755,-25.27688026,-14.56810284,12.48275757,31.73278325,31.732783246771564
7.185905849,-26.83311272,-15.38435364,10.99621677,32.82698674,32.82698673984008
7.188411943,-27.90330315,-15.5545435,9.334700584,33.28174852,33.28174852929338
7.190918036,-28.75305367,-15.68136311,7.591827869,33.61962365,33.61962365539053
7.193424182,-29.51457024,-15.79143333,5.312365532,33.89248369,33.89248368906165
7.195930276,-30.10828972,-15.58325768,3.066701412,34.04044193,34.04044193801102
7.19843637,-30.72115135,-15.18335724,1.189831018,34.28905329,34.28905328524633
7.200942516,-31.28854942,-14.70210075,-0.2584248483,34.57154719,34.57154718367623
7.203448609,-31.86551857,-14.14427376,-1.381256819,34.89096766,34.8909676611709
7.205954703,-32.46163177,-13.4907341,-2.216950178,35.22317862,35.223178616071976
7.208460849,-33.07688522,-12.79651642,-2.693420887,35.56804302,35.568043022057196
7.210966943,-33.64906693,-12.06132126,-2.91116786,35.86377105,35.86377105249313
7.213473036,-34.24518204,-11.29771233,-2.834597588,36.17189157,36.171891577992824
7.215979182,-34.83889771,-10.51017475,-2.513660192,36.4764452,36.47644520076245
7.218485276,-35.48765182,-9.808479309,-2.097309113,36.87788503,36.877885020267954
7.22099137,-36.13162231,-9.135796547,-1.711765528,37.3080025,37.30800249977899
7.223497464,-36.75914001,-8.515756607,-1.304686546,37.75519424,37.75519423665783
7.226003609,-37.40310669,-7.936394691,-0.9002995491,38.24642846,38.246428461138244
7.228509703,-37.96093369,-7.385746002,-0.6248258352,38.67779903,38.67779903183439
7.231015797,-38.42753601,-6.818347931,-0.4357928336,39.03018457,39.030184571711104
7.233521943,-38.82504272,-6.217450619,-0.2201396823,39.32033947,39.320339468133426
7.236028036,-39.1675148,-5.64526701,-0.02871387079,39.57226402,39.572264020507966
7.23853413,-39.41397476,-5.082654476,0.1124626622,39.74050114,39.74050113869614
7.241040276,-39.52883148,-4.388436794,0.3424727321,39.77315908,39.77315908048296
7.24354637,-39.46661758,-3.564707518,0.7277171612,39.63395786,39.63395785386006
7.246052464,-39.05505371,-2.717349291,1.208973646,39.16813532,39.16813532371698
7.248558609,-38.08536148,-1.912762642,1.66151619,38.16954357,38.16954356599684
7.251064703,-36.6631279,-1.21854496,2.063809633,36.74138143,36.74138143065069
7.253570797,-35.04946899,-0.6774678826,2.456232548,35.1419595,35.1419595006138
7.256076943,-33.34009552,-0.3065803945,2.872882605,33.46504767,33.465047665932396
7.258583036,-31.56611633,-0.07896314561,3.205784082,31.72858312,31.728583121814026
7.26108913,-29.7610302,0.01914258115,3.390031576,29.9534906,29.953490599427674
7.263595224,-27.98705101,0.009571290575,3.454637766,28.19946166,28.19946166046825
7.26610137,-26.37578583,-0.1531406492,3.437887907,26.59933464,26.599334643362102
7.268607464,-24.88894463,-0.4118646085,3.351746321,25.11699426,25.116994259888617
7.271113557,-23.46940231,-0.6918248534,3.248854876,23.70330198,23.703301972968326
7.273619703,-22.19582367,-0.9649057388,3.081058264,22.42941264,22.42941264279259
7.276125797,-20.93390846,-1.1395818,2.825026274,21.15438356,21.154383553754084
7.278631891,-19.72254181,-1.256830096,2.523231506,19.92297605,19.92297604702371
7.281138036,-18.57817459,-1.31425786,2.228914261,18.7575026,18.757502595014685
7.28364413,-17.46730614,-1.333400369,1.886441588,17.61940414,17.619404138547566
7.286150224,-16.39472389,-1.275972724,1.551446438,16.51732617,16.517326171984124
7.288656318,-15.37238979,-1.182652593,1.254437327,15.46876363,15.468763622823795
7.291162464,-14.35514164,-1.051047325,0.9649057388,14.42587381,14.42587380606876
7.293668557,-13.38784313,-0.9194421172,0.6511468887,13.43516691,13.435166904472498
7.296174651,-12.46600819,-0.6990033388,0.304187566,12.48929525,12.489295253780721
7.298680797,-11.58514977,-0.4932205677,-0.07896314561,11.59591293,11.595912939484238
7.301186891,-10.71117115,-0.2584248483,-0.4645066857,10.72435253,10.724352533737
7.303692984,-9.873384476,0.009571290575,-0.8763712645,9.912206576,9.912206576426986
7.30619913,-9.044869423,0.3113660514,-1.342971683,9.149327005,9.149327004672235
7.308705224,-8.233403206,0.6439684033,-1.826620936,8.458142095,8.458142095097088
7.311211318,-7.455138206,0.9984052777,-2.298306227,7.864992707,7.864992707063821
7.313717464,-6.710670948,1.3310076,-2.700599432,7.355129033,7.3551290332466435
7.316223557,-6.00927496,1.685444474,-3.073879719,6.957071592,6.957071592753639
7.318729651,-5.324329376,2.051845312,-3.378067255,6.630979631,6.630979631081381
7.321235745,-4.685146809,2.420340061,-3.602992773,6.386720876,6.386720876557437
7.323741891,-4.069892406,2.829811811,-3.782753468,6.235469741,6.23546974026477
7.326247984,-3.49531579,3.205784082,-3.883252144,6.129757847,6.129757847265135
7.328754078,-2.966202736,3.55992198,-3.909573078,6.062686272,6.062686271527119
7.331260224,-2.472982168,3.921537161,-3.909573078,6.064557376,6.06455737548688
7.333766318,-2.013560295,4.271188259,-3.868895054,6.104573953,6.10457395272476
7.336272411,-1.589731574,4.579862595,-3.837788343,6.183122773,6.183122773495553
7.338778557,-1.175474167,4.840979099,-3.708575964,6.210503509,6.210503508975559
7.341284651,-0.8210372925,5.087440014,-3.547957659,6.256528724,6.25652872460287
7.343790745,-0.5003990531,5.321936607,-3.387638569,6.328467709,6.328467708335598
7.346296891,-0.1914258152,5.506483078,-3.153141975,6.348252047,6.348252046471709
7.348802984,0.0933200866,5.666802406,-2.803490877,6.323046675,6.323046674241196
7.351309078,0.3257229924,5.829514027,-2.403590441,6.313998437,6.313998437348108
7.353815172,0.5362913609,5.918347836,-1.977667928,6.263036002,6.263036002219823
7.356321318,0.689432025,5.966204166,-1.541875124,6.200668316,6.200668316036697
7.358827411,0.8210372925,5.999703884,-1.110867858,6.156669256,6.1566692561236325
7.361333505,0.8907282352,5.975775242,-0.7037889361,6.082647894,6.082647893677509
7.363839651,0.9481559992,5.901597977,-0.3568296731,5.987919997,5.987919997507824
7.366345745,0.9385846853,5.798407555,-0.01196411345,5.873892621,5.873892621198605
7.368851839,0.8715856671,5.618945599,0.2536391914,5.691796206,5.691796206737347
7.371357984,0.7851449251,5.413163185,0.4597210586,5.489092063,5.489092062679395
7.373864078,0.6702894568,5.240580559,0.6176473498,5.319253782,5.3192537822500014
7.376370172,0.5147559643,5.075475693,0.7157530785,5.151478397,5.151478397741611
7.378876318,0.3400799036,4.881657124,0.7229315639,4.94660092,4.946600920148646
7.381382411,0.1579262912,4.709074974,0.660718143,4.757822642,4.75782264157615
7.383888505,-0.04785645381,4.548755646,0.5386841893,4.580791288,4.580791287866098
7.386394599,-0.2512463629,4.386044025,0.3664009571,4.408486882,4.408486881626447
7.388900745,-0.4429712892,4.26879549,0.1674975902,4.294984743,4.2949847428393335
7.391406839,-0.6415755749,4.201497555,-0.07417750359,4.250847354,4.250847353765845
7.393912932,-0.8524430394,4.144069672,-0.308973223,4.242102902,4.242102902375508
7.396419078,-1.039083242,4.120141506,-0.5506483316,4.284678938,4.2846789376058325
7.398925172,-1.223330617,4.108177185,-0.8090731502,4.362139033,4.362139033114222
7.401431266,-1.386042476,4.134498596,-1.101296663,4.497560086,4.497560085817323
7.403937411,-1.513161182,4.163212299,-1.398006678,4.645042097,4.645042096794074
7.406443505,-1.64476645,4.187140465,-1.716551185,4.814971435,4.8149714349527475
7.408949599,-1.766800404,4.232903481,-2.025524378,5.014160403,5.0141604035878995
7.411455693,-1.821835399,4.259224415,-2.365305185,5.201417639,5.201417639121999
7.413961839,-1.874477386,4.256831646,-2.724527597,5.390485299,5.390485299101284
7.416467932,-1.93190515,4.232903481,-3.078665495,5.579239251,5.579239250844333
7.418974078,-1.955833435,4.213760853,-3.471387386,5.799275415,5.799275414689244
7.421480172,-1.951047778,4.16081953,-3.864109516,6.00419428,6.004194279410845
7.423986266,-1.922333837,4.069892406,-4.247260094,6.188587067,6.1885870668009915
7.426492359,-1.845763564,3.990929127,-4.670789719,6.414876072,6.41487607285153
7.428998505,-1.769193292,3.907180309,-5.099404335,6.663334559,6.663334558861046
7.431504599,-1.668694735,3.77796793,-5.518447399,6.892811146,6.892811145987904
7.434010693,-1.541875124,3.655933857,-5.911169052,7.11935045,7.119350449731456
7.436516839,-1.366899967,3.5766716,-6.298806667,7.371293013,7.371293012916717
7.439022932,-1.180259824,3.526422262,-6.679564476,7.644949235,7.644949235352637
7.441529026,-0.9601200819,3.528815269,-7.029215813,7.923650845,7.923650845419961
7.444035172,-0.7444669604,3.526422262,-7.321139812,8.160206687,8.160206686837522
7.446541266,-0.5123631358,3.540779352,-7.553243637,8.357698478,8.35769847759282
7.449047359,-0.2799602449,3.581457376,-7.737790108,8.531038063,8.531038062879096
7.451553505,-0.0382851623,3.663112402,-7.845467091,8.658591808,8.658591808100354
7.454059599,0.2201396823,3.742075443,-7.900502205,8.74468554,8.744685539917182
7.456565693,0.4812564552,3.840181351,-7.919644833,8.814724888,8.814724888792812
7.459071839,0.7157530785,3.926322937,-7.922037601,8.87056898,8.870568979871154
7.461577932,0.9361918569,4.017250061,-7.905287743,8.916744223,8.916744223378643
7.464084026,1.144367456,4.077070713,-7.864609718,8.932198413,8.932198413023206
7.46659012,1.342971683,4.153641224,-7.764111042,8.907172875,8.907172875360532
7.469096266,1.508375525,4.242474556,-7.567600727,8.805814434,8.805814433998558
7.471602359,1.570588946,4.350151539,-7.201498985,8.55874732,8.558747319585821
7.474108453,1.53230381,4.517649174,-6.641279221,8.177022607,8.177022607084425
7.476614599,1.326221943,4.689932346,-5.901597977,7.653965556,7.6539655561207125
7.479120693,1.015154958,4.876871586,-5.089832783,7.121854661,7.121854661110943
7.481626786,0.5889334679,5.039583683,-4.230510235,6.60616857,6.606168570057255
7.484132932,0.1100698411,5.178367138,-3.351746321,6.169425012,6.169425012606533
7.486639026,-0.4214358926,5.300401211,-2.472982168,5.864085778,5.864085778055076
7.48914512,-1.005583763,5.408377171,-1.599302888,5.728831648,5.728831648405138
7.491651214,-1.589731574,5.470590591,-0.7564310431,5.74689445,5.74689444958541
7.494157359,-2.238485575,5.504090309,-0.02153540403,5.941909758,5.941909758043918
7.496663453,-2.892025232,5.528018475,0.7109674215,6.279193648,6.279193648622436
7.499169547,-3.569493294,5.611767292,1.592124343,6.838718772,6.838718771747026
7.501675693,-4.261617184,5.736194134,2.499303341,7.570457143,7.570457143147556
7.504181786,-4.953442097,5.884549141,3.327818155,8.380863969,8.38086396942005
7.50668788,-5.64526701,6.018846035,4.091427803,9.210609571,9.21060957127111
7.509194026,-6.315556049,6.145665646,4.725824833,9.999443724,9.999443724162088
7.51170012,-6.959524632,6.241378784,5.259723186,10.72634515,10.726345147445427
7.514206214,-7.630113125,6.344270229,5.738586903,11.4629739,11.462973902184203
7.516712359,-8.350651741,6.451947212,6.179165363,12.22878129,12.228781292884415
7.519218453,-9.075976372,6.538387775,6.581458569,12.97842281,12.978422812377291
7.521724547,-9.830313683,6.600601196,6.969096184,13.73940701,13.739407006004917
7.524230693,-10.61067295,6.643671989,7.328318596,14.50617149,14.506171493325327
7.526736786,-11.37906837,6.653243542,7.670791149,15.2508978,15.250897791601513
7.52924288,-12.20279694,6.684350014,8.046463966,16.07278353,16.072783536919534
7.531748974,-13.05254841,6.677171707,8.446364403,16.92024567,16.920245672815167
7.53425512,-13.94566917,6.634100914,8.817551613,17.78319994,17.783199936573368
7.536761214,-14.87946892,6.598208427,9.195617676,18.69476756,18.694767562891588
7.539267359,-15.85843182,6.495316982,9.554840088,19.62075359,19.620753593924416
7.541773453,-16.84726524,6.346662998,9.774979591,20.48562187,20.48562186709403
7.544279547,-17.81934929,6.193522453,9.753444672,21.23719879,21.237198790438534
7.546785641,-18.78395653,6.016453266,9.444769859,21.86866275,21.868662750894636
7.549291786,-19.74886322,5.784050465,8.95154953,22.44110241,22.441102407234336
7.55179788,-20.69941139,5.446662426,8.446364403,23.01027673,23.010276728095373
7.554303974,-21.66192436,5.049154758,7.905287743,23.60564562,23.605645618119016
7.55681012,-22.60978127,4.639683247,7.333104134,24.21782991,24.217829918261117
7.559316214,-23.53640175,4.213760853,6.622136593,24.8106969,24.810696905166285
7.561822307,-24.43430901,3.737289906,5.892026424,25.41099699,25.410996989861907
7.564328453,-25.28645325,3.203391314,5.219045162,26.01739545,26.01739545531108
7.566834547,-26.13171768,2.626421928,4.622933388,26.66713847,26.667138469678164
7.569340641,-26.96232605,2.025524378,4.108177185,27.34861779,27.348617786201473
7.571846734,-27.73072052,1.366899967,3.651148319,28.00343122,28.003431220574917
7.57435288,-28.45155907,0.6870391965,3.246462107,28.64441922,28.64441922230949
7.576858974,-29.12424088,-0.05264209956,3.018844843,29.2803279,29.280327904806956
7.579365068,-29.7107811,-0.8691928387,3.052344322,29.87980615,29.879806151027992
7.581871214,-30.2446804,-1.687837243,3.181855917,30.45839284,30.45839283569555
7.584377307,-30.70440102,-2.520838737,3.490530014,31.00481688,31.00481687921365
7.586883401,-31.13750267,-3.390031576,4.060320854,31.58358105,31.583581051678756
7.589389547,-31.5110817,-4.261617184,4.831408024,32.16290028,32.162900280002894
7.591895641,-31.81526947,-5.051547527,5.693123341,32.71301205,32.71301204783951
7.594401734,-31.97080231,-5.74337244,6.636493683,33.15360577,33.15360577273838
7.59690788,-31.94208908,-6.298806667,7.857431412,33.49195797,33.491957969297395
7.599413974,-31.70759201,-6.686742783,9.557232857,33.78497625,33.78497624686954
7.601920068,-31.06093216,-6.777669907,11.45563793,33.79275006,33.79275005677446
7.604426214,-29.94766998,-6.631708145,13.13151169,33.36583716,33.36583716042592
7.606932307,-28.58077049,-6.351448536,14.23759365,32.55626535,32.55626534555264
7.609438401,-27.20400047,-6.030810356,15.0158596,31.65287278,31.652872770867248
7.611944495,-25.86342239,-5.731408596,15.30060482,30.59206058,30.5920605725679
7.614450641,-24.61855507,-5.461019516,15.07567978,29.37979082,29.379790821546983
7.616956734,-23.53640175,-5.264508724,14.46999645,28.12575433,28.125754331315058
7.619462828,-22.62892342,-5.149653435,13.53141212,26.8642182,26.864218202101373
7.621968974,-21.83420753,-5.065904617,12.34158134,25.58731401,25.587314005645197
7.624475068,-21.09691811,-4.857728958,10.98903847,24.27831235,24.278312356186905
7.626981214,-20.47179413,-4.773980141,9.686445236,23.14546311,23.145463110462746
7.629487307,-20.01715851,-4.759324074,8.796015739,22.37649868,22.376498683586696
7.631993401,-19.59811401,-4.721039295,8.103892326,21.72665082,21.72665081427172
7.634499495,-19.14078712,-4.675575256,7.584649563,21.11297337,21.112973370446745
7.637005641,-18.57817459,-4.634897232,7.103393078,20.42275781,20.422757812506646
7.639511734,-17.94138336,-4.596612453,6.715456963,19.70074733,19.700747324288606
7.642017828,-17.2878437,-4.529613495,6.387341022,18.97854219,18.978542186928895
7.644523974,-16.54307938,-4.438685894,6.114559174,18.18689753,18.18689752901586
7.647030068,-15.77229023,-4.321437836,5.94466877,17.40054743,17.400547429744247
7.649536161,-15.00150204,-4.122534275,5.865406513,16.62658551,16.626585514392808
7.652042255,-14.26630783,-3.85932374,5.942276001,15.92898499,15.9289849928521
7.654548401,-13.54337597,-3.61017108,6.114559174,15.29196527,15.291965268858982
7.657054495,-12.76780224,-3.356531858,6.222236156,14.59449564,14.594495638238122
7.659560641,-12.02542973,-3.0981071,6.353841305,13.94921242,13.949212419465209
7.662066734,-11.29771233,-2.894418001,6.46421051,13.33424077,13.334240772295262
7.664572828,-10.55563831,-2.683849812,6.504888535,12.68613908,12.686139081599514
7.667078922,-9.875777245,-2.496910334,6.51445961,12.09147309,12.091473087230403
7.669585068,-9.162117958,-2.312663078,6.509674072,11.47469706,11.4746970553614
7.672091161,-8.446364403,-2.123630047,6.435197353,10.82878761,10.828787613433231
7.674597255,-7.721040249,-1.939083695,6.248557091,10.12022598,10.120225976843562
7.677103401,-6.969096184,-1.742872238,5.990132332,9.353480134,9.353480133870294
7.679609495,-6.243771553,-1.604088426,5.669195175,8.584728116,8.584728115480562
7.682115589,-5.50169754,-1.477268934,5.26690197,7.758302372,7.758302371433678
7.684621734,-4.756931305,-1.374078393,4.79073,6.889672039,6.889672038892596
7.687127828,-4.017250061,-1.271187067,4.189533234,5.941919162,5.941919162249102
7.689633922,-3.253640652,-1.216152072,3.602992773,5.004673843,5.00467384320568
7.692140016,-2.604886532,-1.192223907,3.141177893,4.25133276,4.251332760969111
7.694646161,-2.001596212,-1.194616675,2.860918522,3.690305026,3.690305026092487
7.697152255,-1.472483277,-1.2352947,2.774776936,3.375432867,3.375432867270552
7.699658349,-1.017547846,-1.304686546,2.848954439,3.294564007,3.294564007226215
7.702164495,-0.6296114326,-1.383649707,3.057130098,3.414226341,3.4142263404524456
7.704670589,-0.323330164,-1.494018674,3.332603693,3.666453541,3.666453540931648
7.707176682,-0.05982056633,-1.673480392,3.631706476,3.999175796,3.999175796384157
7.709682828,0.1076770201,-1.905584097,3.92392993,4.363493003,4.363493002967545
7.712188922,0.2297109663,-2.183450699,4.167997837,4.710884211,4.7108842112960865
7.714695016,0.3137588799,-2.50169611,4.374079704,5.048712838,5.048712837788456
7.717201161,0.371186614,-2.836990356,4.496113777,5.329290092,5.329290091389189
7.719707255,0.3735794425,-3.203391314,4.551148891,5.578013422,5.578013422224779
7.722213349,0.3807578981,-3.552743435,4.577469826,5.806909031,5.80690903147635
7.724719495,0.3664009571,-3.864109516,4.52482748,5.961514551,5.961514550579299
7.727225589,0.3496512175,-4.189533234,4.465006828,6.132758814,6.132758813680541
7.729731682,0.3257229924,-4.476971149,4.364508629,6.260854711,6.260854710770076
7.732237828,0.2850449979,-4.735395908,4.273581028,6.385038752,6.385038751582679
7.734743922,0.2153540403,-4.958227634,4.124927044,6.45332641,6.453326409810475
7.737250016,0.1244267747,-5.185545921,3.950251102,6.519957998,6.519957997557515
7.739756109,0.05503492057,-5.367699623,3.766003847,6.55728702,6.557287019862352
7.742262255,-0.01674975827,-5.508875847,3.547957659,6.552556539,6.5525565394064955
7.744768349,-0.09810572863,-5.64526701,3.344567776,6.562377462,6.562377462203919
7.747274443,-0.1818545163,-5.750551224,3.105285645,6.537943819,6.5379438191215495
7.749780589,-0.2368894368,-5.83669281,2.825026274,6.488749726,6.488749726439096
7.752286682,-0.304187566,-5.882156372,2.540280342,6.41446162,6.414461620114415
7.754792776,-0.3257229924,-5.935097694,2.267199516,6.361735122,6.361735121054065
7.757298922,-0.3544368446,-5.947061539,1.994417667,6.28258452,6.282584520394833
7.759805016,-0.3640081584,-5.908776283,1.74047935,6.170527325,6.17052732509155
7.762311109,-0.3520440459,-5.899205208,1.520339727,6.102129954,6.102129954519356
7.764817255,-0.3161516786,-5.860620975,1.321436286,6.016063826,6.016063825662841
7.767323349,-0.2608176768,-5.817550182,1.161117196,5.938022325,5.938022324264745
7.769829443,-0.2009970993,-5.77208662,0.9744769931,5.857216847,5.857216847000907
7.772335589,-0.1076770201,-5.700301647,0.766002357,5.752546638,5.752546637653456
7.774841682,0.03349951655,-5.671587944,0.5530411601,5.698586364,5.6985863640818835
7.777347776,0.1698904037,-5.597410202,0.3640081584,5.611805918,5.61180591771533
7.779853922,0.3281157911,-5.532804012,0.1531406492,5.544639958,5.5446399581947485
7.782360016,0.5315057039,-5.441876888,-0.05982056633,5.46809847,5.468098469996938
7.784866109,0.7301099896,-5.346164227,-0.2416750938,5.401197958,5.401197958780205
7.787372203,0.9744769931,-5.250152111,-0.4142574072,5.355867045,5.355867044479264
7.789878349,1.240080357,-5.180759907,-0.5530411601,5.355737767,5.355737767157821
7.792384443,1.510768414,-5.082654476,-0.6990033388,5.348308461,5.3483084607001175
7.794890536,1.764407635,-4.965405941,-0.8476574421,5.337313332,5.337313331678392
7.797396682,2.073380709,-4.845765114,-0.9840483069,5.36178125,5.361781250184078
7.799902776,2.353341103,-4.723432064,-1.120439172,5.394850206,5.3948502063027295
7.80240887,2.626421928,-4.601397991,-1.268794179,5.448008286,5.448008285981434
7.804915016,2.927917719,-4.469792843,-1.417448282,5.528192278,5.528192277834856
7.807421109,3.212962627,-4.321437836,-1.570588946,5.609340732,5.609340732225891
7.809927203,3.509672642,-4.16081953,-1.728515267,5.711215829,5.711215828830563
7.812433349,3.792324781,-3.974179268,-1.867298961,5.801950837,5.801950836446254
7.814939443,4.074677944,-3.773182154,-1.939083695,5.882172175,5.882172174528641
7.817445536,4.352544308,-3.526422262,-1.946262121,5.930280952,5.930280951748561
7.819951682,4.594219685,-3.229712248,-1.903191328,5.92958961,5.929589610579902
7.822457776,4.831408024,-2.853740215,-1.814656854,5.897399105,5.897399105270814
7.82496387,5.058726311,-2.384447813,-1.54905355,5.803091431,5.803091431581253
7.827470016,5.199902534,-1.790728688,-1.065404296,5.601855221,5.601855220465901
7.829976109,5.235795021,-1.149153113,-0.5027918816,5.383948556,5.383948556148067
7.832482203,5.166403294,-0.5099703074,0.1148554832,5.19278196,5.192781960828397
7.834988297,5.003691196,0.1028913707,0.7444669604,5.059816526,5.059816525746724
7.837494443,4.718646049,0.6104688644,1.390828133,4.957085401,4.957085400282045
7.840000536,4.225724697,0.9122636318,2.030309916,4.776100135,4.7761001354398545
7.84250663,3.569493294,1.022333503,2.600100994,4.532876939,4.532876939237046
7.845012776,2.760420084,0.9074779749,3.119642496,4.26328566,4.263285659902264
7.84751887,1.869691849,0.6176473498,3.600599766,4.103846309,4.103846309725945
7.850024964,0.9433703423,0.2033899277,4.002892971,4.117580261,4.11758026062665
7.852531109,0.03110669367,-0.2826521695,4.354937077,4.364210904,4.3642109046130475
7.855037203,-0.8234301209,-0.8066803217,4.687539577,4.827193553,4.827193552299798
7.857543297,-1.620838284,-1.304686546,5.003691196,5.419063509,5.41906350868131
7.860049443,-2.338984251,-1.721336842,5.350949764,6.088227265,6.088227264721991
7.862555536,-3.047558784,-2.035095692,5.74337244,6.812896301,6.812896300552657
7.86506163,-3.746861219,-2.269592285,6.227021694,7.613528572,7.613528571702107
7.867567776,-4.481756687,-2.403590441,6.801598549,8.492651696,8.492651696101442
7.87007387,-5.209474087,-2.484946251,7.438388348,9.415051744,9.415051744368993
7.872579964,-5.95902586,-2.475374937,8.226224899,10.45505841,10.45505841054004
7.875086109,-6.715456963,-2.408375978,9.109476089,11.57066081,11.570660814723391
7.877592203,-7.438388348,-2.34137702,10.00738239,12.68697639,12.68697638782103
7.880098297,-8.209475517,-2.303091764,10.9049902,13.84263454,13.842634546925057
7.882604391,-9.066405296,-2.353341103,11.79093266,15.05868561,15.058685611004062
7.885110536,-9.985847473,-2.508874655,12.67687511,16.33140424,16.33140423671704
7.88761663,-10.96989536,-2.710170746,13.45484161,17.57032705,17.570327043968508
7.890122724,-11.86989594,-2.915953398,13.92891979,18.53137934,18.531379343211068
7.89262887,-12.72233868,-3.150749207,14.15145206,19.28856442,19.28856442197069
7.895134964,-13.64148235,-3.382853031,14.08206081,19.89568225,19.895682244930565
7.897641057,-14.48435402,-3.614956856,13.73480225,20.28568996,20.285689963470226
7.900147203,-15.28864098,-3.79471755,13.05733395,20.4606059,20.46060590944061
7.902653297,-16.13629913,-3.935894251,12.30808163,20.67269423,20.6726942264098
7.905159391,-16.93340683,-4.010071754,11.51575851,20.86704666,20.86704666221736
7.907665536,-17.77627945,-4.067499161,10.75424194,21.17060179,21.170601791476855
7.91017163,-18.64995956,-4.089034557,10.11266708,21.60572218,21.60572217420402
7.912677724,-19.53590202,-4.022035599,9.475876808,22.08213032,22.082130317862354
7.91518387,-20.56062698,-3.964607954,9.042476654,22.80841692,22.80841691301172
7.917689964,-21.55873299,-3.928715706,8.661719322,23.56351325,23.563513253455938
7.920196057,-22.5643177,-3.892823458,8.319544792,24.36221118,24.36221117402488
7.922702203,-23.59383011,-3.837788343,8.08953476,25.23564961,25.235649610391597
7.925208297,-24.65684128,-3.785146236,7.701898098,26.10759254,26.107592540236126
7.927714391,-25.66720963,-3.715754509,7.447959423,26.98304247,26.983042477233234
7.930220536,-26.64138794,-3.634099483,7.239784241,27.84573049,27.845730485626525
7.93272663,-27.63261414,-3.524029493,7.048357964,28.73429132,28.734291327024998
7.935232724,-28.59991264,-3.366103172,6.890132904,29.6101264,29.610126393093356
7.937738818,-29.57439041,-3.205784082,6.717849731,30.49673958,30.496739575105423
7.940244964,-30.46960449,-3.018844843,6.466603279,31.29420362,31.294203615543715
7.942751057,-31.33401299,-2.803490877,6.291627884,32.08215255,32.08215255536382
7.945257151,-32.21008301,-2.583351135,6.305984974,32.92307089,32.92307089398117
7.947763297,-32.97399521,-2.329412937,6.227021694,33.6375731,33.63757309791704
7.950269391,-33.62274551,-2.008774519,6.167201042,34.24264242,34.242642412507465
7.952775484,-34.27628708,-1.62801671,6.325127602,34.89300121,34.89300121199374
7.95528163,-34.83172226,-1.230509043,6.492924213,35.45308298,35.45308298213917
7.957787724,-35.31536865,-0.8210372925,6.710670948,35.9566749,35.956674897623806
7.960293818,-35.74637604,-0.3807578981,6.942774773,36.41634932,36.41634932442648
7.962799964,-36.07180023,0.05503492057,7.144071102,36.77248364,36.772483633634835
7.965306057,-36.28506088,0.5267201066,7.321139812,37.02002384,37.02002384227831
7.967812151,-36.31856155,1.046261668,7.452745438,37.09010638,37.090106377613616
7.970318297,-36.21806335,1.599302888,7.526922703,37.02648307,37.026483061845276
7.972824391,-35.94019699,2.228914261,7.591827869,36.80083788,36.800837882518636
7.975330484,-35.1957283,2.748456001,7.536494255,36.09836626,36.09836625960379
7.977836578,-33.76871109,2.966202736,7.256533623,34.66672017,34.666720173282506
7.980342724,-32.24358368,2.918346405,6.985845566,33.12049928,33.120499279762385
7.982848818,-30.76661491,2.681456804,6.708278179,31.60341437,31.60341436836849
7.985354911,-29.38266563,2.329412937,6.387341022,30.15900081,30.15900080385241
7.987861057,-28.0731926,1.984846354,6.081059456,28.79276023,28.792760234355594
7.990367151,-26.79482841,1.685444474,5.796014786,27.46629462,27.466294617145046
7.992873245,-25.58585358,1.486840129,5.51605463,26.21590081,26.215900817396072
7.995379391,-24.47259331,1.340578914,5.290830135,25.0738481,25.07384810233049
7.997885484,-23.41197586,1.292722464,5.04676199,23.98461073,23.984610724834823
8.000391578,-22.37289238,1.297508121,4.850550652,22.9294065,22.9294064990514
8.002897724,-21.33141518,1.4054842,4.622933388,21.87181228,21.87181228265891
8.005403818,-20.31865311,1.589731574,4.448257446,20.86053463,20.860534628522338
8.007909911,-19.34178352,1.838585138,4.33340168,19.90636469,19.90636468982835
8.010416057,-18.34607124,2.13559413,4.196712017,18.9407361,18.94073609934096
8.012922151,-17.35484314,2.477767944,4.120141506,18.00848357,18.00848356824591
8.015428245,-16.35165215,2.825026274,4.010071754,17.07155461,17.07155461449304
8.017934391,-15.3915329,3.126821041,3.82821703,16.16575208,16.165752084669762
8.020440484,-14.44367599,3.39960289,3.574278831,15.26278301,15.262783005583664
8.022946578,-13.5409832,3.663112402,3.401995659,14.43434075,14.434340752394037
8.025452724,-12.65294743,3.885644913,3.22492671,13.62334273,13.623342737417193
8.027958818,-11.81007481,4.074677944,2.997309446,12.84775199,12.847751993255374
8.030464911,-10.99860954,4.237689018,2.693420887,12.0905722,12.090572199080764
8.032971057,-10.22512913,4.381258488,2.362912416,11.37242484,11.372424840355443
8.035477151,-9.47109127,4.491328239,2.080559254,10.68654884,10.686548835078334
8.037983245,-8.796015739,4.58943367,1.793121457,10.08206719,10.082067191385862
8.040489339,-8.137690544,4.677968502,1.491625786,9.504227701,9.504227700401081
8.042995484,-7.546065331,4.759324074,1.137188911,8.993745951,8.993745951514168
8.045501578,-6.959524632,4.836193562,0.8090731502,8.513421793,8.513421793551611
8.048007672,-6.416054726,4.893621445,0.5003990531,8.084781277,8.084781277581614
8.050513818,-5.906383514,4.948656559,0.2321037948,7.708984377,7.7089843770074715
8.053019911,-5.444269657,4.99651289,-0.0239282269,7.38957277,7.389572769660614
8.055526005,-5.013262749,5.025226593,-0.2081755698,7.101340913,7.101340913473102
8.058032151,-4.61814785,5.051547527,-0.3831507266,6.855087634,6.855087633378114
8.060538245,-4.26879549,5.056333542,-0.5027918816,6.636408931,6.6364089310109176
8.063044339,-3.95503664,5.039583683,-0.555433929,6.430258577,6.430258577319166
8.065550484,-3.660719633,5.008476734,-0.5147559643,6.225004509,6.225004508370527
8.068056578,-3.41635251,4.960620403,-0.4740779996,6.041851472,6.041851471606027
8.070562672,-3.217748165,4.90319252,-0.4645066857,5.883108583,5.883108583275072
8.073068818,-2.999702215,4.831408024,-0.4357928336,5.70356312,5.7035631202665416
8.075574911,-2.808276415,4.756931305,-0.4022932947,5.538650716,5.5386507164195535
8.078081005,-2.667099953,4.661218643,-0.4310071766,5.387592095,5.387592095122279
8.080587151,-2.552244425,4.565505505,-0.4812564552,5.25256127,5.252561270161497
8.083093245,-2.432304144,4.445864677,-0.5841478109,5.101278746,5.101278745578911
8.085599339,-2.317448616,4.285545349,-0.7301099896,4.926411232,4.926411231621814
8.088105484,-2.250449657,4.127319813,-0.8572286963,4.778507459,4.778507458949287
8.090611578,-2.19780755,3.933501244,-0.955334425,4.606023657,4.606023656797328
8.093117672,-2.173879385,3.739682674,-1.039083242,4.448670821,4.448670820205626
8.095623766,-2.173879385,3.550350666,-1.151545882,4.319351728,4.319351728031162
8.098129911,-2.130808592,3.327818155,-1.297508121,4.159116042,4.1591160422077165
8.100636005,-2.094916344,3.107678413,-1.522732496,4.045374379,4.045374378393045
8.103142099,-2.07098794,2.91116786,-1.795514345,3.998469847,3.998469847306992
8.105648245,-2.018345833,2.700599432,-2.106880426,3.975663759,3.975663758816775
8.108154339,-1.946262121,2.51844573,-2.43708992,4.008729527,4.008729526515883
8.110660432,-1.896012783,2.307877541,-2.822633505,4.109552666,4.109552666787493
8.113166578,-1.819442511,2.121237278,-3.301496983,4.325494303,4.325494303448906
8.115672672,-1.711765528,1.968096614,-3.847359657,4.648195546,4.648195546144605
8.118178766,-1.594517231,1.807478428,-4.424329281,5.038268855,5.038268854909912
8.120684911,-1.450947881,1.654337764,-5.037190914,5.496851416,5.49685141648008
8.123191005,-1.304686546,1.527518153,-5.63090992,5.978516975,5.978516974820122
