Time (s),Acceleration x (m/s^2),Acceleration y (m/s^2),Acceleration z (m/s^2),Absolute acceleration (m/s^2),magnitude
6.198884178,-4.747360229,10.70399284,3.59102869,12.24779078,12.247790776914233
6.201390271,-4.60379076,10.66092205,3.687040567,12.18377677,12.18377677326457
6.203896313,-4.457828522,10.6417799,3.789932013,12.14427022,12.14427022240377
6.206402407,-4.323830605,10.63220787,3.861716747,12.11000461,12.110004604692968
6.208908449,-4.151247978,10.65852928,3.921537161,12.09196262,12.091962615414023
6.211414542,-3.993321896,10.67288589,3.959822416,12.06388439,12.063884389046928
6.213920584,-3.847359657,10.71834946,3.986143351,12.06542706,12.065427066279709
6.216426678,-3.696611881,10.78056335,4.007678986,12.08085165,12.080851642038303
6.218932719,-3.567100286,10.85713387,4.000500202,12.10807838,12.108078385428652
6.221438813,-3.411566973,10.94596672,3.957429647,12.12906534,12.129065341466609
6.223944855,-3.270390272,11.04168034,3.902394533,12.15906412,12.159064123242505
6.226451001,-3.145963669,11.14217854,3.830610037,12.19503191,12.195031909735604
6.228957042,-3.018844843,11.23071289,3.732504129,12.21367771,12.213677712987268
6.231463084,-2.899203777,11.33599758,3.614956856,12.24655612,12.246556117745035
6.233969178,-2.765205622,11.43171024,3.526422262,12.27868133,12.278681326314747
6.236475219,-2.64077878,11.51097202,3.428316593,12.2975422,12.297542196388688
6.238981261,-2.542673111,11.59950733,3.318246841,12.32982234,12.329822340404286
6.241487355,-2.446661234,11.65454197,3.208176851,12.33316255,12.333162547852119
6.243993396,-2.324627161,11.69521999,3.119642496,12.32534914,12.325349137245713
6.24649949,-2.243271112,11.74546909,3.016452074,12.33236768,12.332367677815078
6.249005532,-2.161915302,11.75504017,2.944667339,12.30958622,12.30958622004447
6.251511626,-2.049452543,11.76221848,2.882453918,12.28245007,12.282450076701156
6.254017667,-1.960619092,11.75025463,2.820240498,12.24198789,12.241987892507927
6.256523761,-1.862513304,11.71914768,2.791526794,12.19015997,12.190159965925234
6.259029803,-1.817049742,11.66650581,2.767598391,12.12718551,12.127185511631783
6.261535896,-1.75722909,11.60668564,2.734098911,12.05314492,12.053144920544838
6.264041938,-1.678265929,11.52532959,2.743670225,11.96568113,11.965681133563745
6.266548032,-1.637588024,11.43888855,2.75084877,11.87842728,11.878427284412691
6.269054074,-1.59691,11.35035419,2.779562712,11.79434741,11.794347402738795
6.271560167,-1.556231976,11.2570343,2.81545496,11.70766697,11.707666967687882
6.274066209,-1.53230381,11.15174961,2.832204819,11.60736225,11.607362252770544
6.276572303,-1.525125384,11.05364418,2.877668381,11.52345575,11.523455749295701
6.279078344,-1.510768414,10.95314598,2.913560629,11.43427582,11.43427582310262
6.281584438,-1.491625786,10.87866879,2.949453115,11.36968142,11.369681429378899
6.28409048,-1.494018674,10.80688477,2.97577405,11.30823069,11.30823069392255
6.286596574,-1.477268934,10.75663471,3.028416157,11.27203701,11.272037003475322
6.289102615,-1.46769762,10.73509979,3.088535786,11.26656812,11.266568115731353
6.291608709,-1.450947881,10.73509979,3.133999348,11.27694858,11.27694857520867
6.294114751,-1.470090389,10.73509979,3.143570662,11.28209067,11.282090664414788
6.296620844,-1.470090389,10.73509979,3.16032052,11.28676921,11.286769203019137
6.299126886,-1.455733418,10.74706364,3.19382,11.30570753,11.305707534643377
6.30163298,-1.470090389,10.78056335,3.205784082,11.34278465,11.342784643798804
6.304139021,-1.460519075,10.78295612,3.205784082,11.34382256,11.343822558321726
6.306645115,-1.474876046,10.78056335,3.198605776,11.3413793,11.341379299039794
6.309151157,-1.496411443,10.74467087,3.189034462,11.30739316,11.30739316160854
6.311657251,-1.491625786,10.70399284,3.177070379,11.26473198,11.26473197183806
6.314163292,-1.489233017,10.63699436,3.167499065,11.19805851,11.198058506739933
6.316669386,-1.51555407,10.54367352,3.148356438,11.10756965,11.107569657496585
6.319175428,-1.544267893,10.4288187,3.136392355,10.99918087,10.999180869834026
6.321681521,-1.558624864,10.28734303,3.12921381,10.86511468,10.865114686567432
6.324187563,-1.577767372,10.16052341,3.107678413,10.7416596,10.741659600077261
6.326693657,-1.608874083,10.00498962,3.102892876,10.59793552,10.597935521184699
6.329199699,-1.64476645,9.844670296,3.090928555,10.44876209,10.448762091468287
6.331705792,-1.666301847,9.667302132,3.073879719,10.2801765,10.280176500603813
6.334211834,-1.714158297,9.463912964,3.054737091,10.09135303,10.091353028829799
6.336717928,-1.766800404,9.262915611,3.045166016,9.909400857,9.90940085722055
6.339223969,-1.800299883,9.085547447,3.009273529,9.738787361,9.738787360485809
6.341730063,-1.876870275,8.874979019,2.980559587,9.548383637,9.548383636434304
6.344236105,-1.915155411,8.683254242,2.932703257,9.363090989,9.36309098925734
6.346742199,-1.951047778,8.494221687,2.887239695,9.181205943,9.181205942376172
6.34924824,-2.008774519,8.305188179,2.853740215,9.008615819,9.008615818842163
6.351754334,-2.07098794,8.111070633,2.832204819,8.837411499,8.83741149873125
6.354260376,-2.109273195,7.931608677,2.813062191,8.675988042,8.675988042098774
6.356766469,-2.171486616,7.778468132,2.810669184,8.551010576,8.551010575709395
6.359272511,-2.23130703,7.625327587,2.813062191,8.428384825,8.42838482519779
6.361778605,-2.291127682,7.481459141,2.825026274,8.318790199,8.318790199450246
6.364284646,-2.346162558,7.330711365,2.827419043,8.19988453,8.199884530297991
6.36679074,-2.394019127,7.203891754,2.808276415,8.094059575,8.094059575196878
6.369296782,-2.425125837,7.115357399,2.789133787,8.018030527,8.018030526418189
6.371802876,-2.492124796,7.017251492,2.748456001,7.937664322,7.9376643220942
6.374308917,-2.571387053,6.945167542,2.710170746,7.886216395,7.886216395411715
6.376815011,-2.616850615,6.887740135,2.638386011,7.826234858,7.826234857934956
6.379321053,-2.676671267,6.830312252,2.557030201,7.768921288,7.76892128807023
6.381827146,-2.71974206,6.789634228,2.470589399,7.720099857,7.720099856958677
6.384333188,-2.755634308,6.760920525,2.37248373,7.67673406,7.676734060387115
6.386839282,-2.801098108,6.725028038,2.248056889,7.624035185,7.624035184776344
6.389345324,-2.834597588,6.681957245,2.142772675,7.568022915,7.568022915308203
6.391851417,-2.863311291,6.669992924,2.037488461,7.5391456,7.539145600403689
6.394357459,-2.894418001,6.655636311,1.912762642,7.505585333,7.505585333166585
6.396863553,-2.920739174,6.638886452,1.795514345,7.471907548,7.471907548155834
6.399369594,-2.94227457,6.626922131,1.671087503,7.440807081,7.440807081109484
6.401875688,-2.951845884,6.595815659,1.587338686,7.398501364,7.39850136409189
6.40438173,-2.956631422,6.569494724,1.486840129,7.355992378,7.355992377879841
6.406887824,-2.978166819,6.540780544,1.4054842,7.323023526,7.323023526045178
6.409393865,-2.987738132,6.533602238,1.323829174,7.305276246,7.305276246093571
6.411899959,-2.992523909,6.516852379,1.259222865,7.280810841,7.280810840789192
6.414406001,-3.002095222,6.502495766,1.199402332,7.261789921,7.261789921418148
6.416912094,-3.026023388,6.483353138,1.151545882,7.246843684,7.246843683638319
6.419418136,-3.018844843,6.46421051,1.098903775,7.218520015,7.2185200152393705
6.42192423,-3.030808926,6.425626278,1.05822587,7.182918474,7.182918473878335
6.424430271,-3.042773008,6.413661957,1.02711916,7.172761047,7.1727610475828305
6.426936365,-3.073879719,6.394519329,0.9960124493,7.164541491,7.164541490911663
6.429442407,-3.107678413,6.380162239,1.000798106,7.166989059,7.166989058423409
6.431948501,-3.117249727,6.370591164,1.034297585,7.167387888,7.167387887763106
6.434454542,-3.126821041,6.363412857,1.079761267,7.171883811,7.171883811439409
6.436960636,-3.143570662,6.349055767,1.12283206,7.17309539,7.173095390027023
6.439466678,-3.157927752,6.339484692,1.144367456,7.174339741,7.174339741140367
6.441972771,-3.172284603,6.349055767,1.194616675,7.197291695,7.1972916944566645
6.444478813,-3.179463148,6.34187746,1.254437327,7.204304869,7.20430486823795
6.446984907,-3.191427231,6.308377743,1.304686546,7.18909205,7.189092049936454
6.449490949,-3.200998545,6.34187746,1.340578914,7.229312086,7.229312085351523
6.451997042,-3.227319479,6.332305908,1.376471281,7.239362011,7.2393620105256735
6.454503084,-3.232105255,6.329913139,1.390828133,7.242147998,7.24214799781306
6.457009178,-3.236890793,6.329913139,1.410269856,7.248042731,7.2480427302710675
6.459515219,-3.244069338,6.322734833,1.427019596,7.248265073,7.248265072798546
6.462021313,-3.239283562,6.310770512,1.460519075,7.242368288,7.242368287971209
6.464527355,-3.251247883,6.298806667,1.496411443,7.244641153,7.244641152720884
6.467033449,-3.296711445,6.296413898,1.537089467,7.271573307,7.271573306794334
6.46953949,-3.313461065,6.267699718,1.594517231,7.266744057,7.266744056607754
6.472045584,-3.318246841,6.270092487,1.632802367,7.2794825,7.279482499671328
6.474551626,-3.342175007,6.272485256,1.678265929,7.302792726,7.302792725567054
6.477057719,-3.356531858,6.267699718,1.733300924,7.31810754,7.318107539652958
6.479563761,-3.3852458,6.277271271,1.807478428,7.357377386,7.357377386258296
6.482069855,-3.404388428,6.277271271,1.874477386,7.382930356,7.382930356508021
6.484575896,-3.418745279,6.274878502,1.929512382,7.401684776,7.401684776443662
6.48708199,-3.454637766,6.291627884,1.994417667,7.449617799,7.449617799286183
6.489588032,-3.507279873,6.320342064,2.049452543,7.513187848,7.5131878480128425
6.492094126,-3.543172121,6.329913139,2.099701881,7.551861825,7.5518618244371645
6.494600167,-3.602992773,6.339484692,2.169093609,7.607600815,7.607600815434338
6.497106261,-3.643670797,6.365805626,2.216950178,7.662550896,7.662550896187125
6.499612303,-3.670290947,6.413661957,2.248056889,7.723979227,7.7239792277348585
6.502118396,-3.706183195,6.444768906,2.279163599,7.775951828,7.775951828403484
6.504624438,-3.742075443,6.478567123,2.315055847,7.831631003,7.8316310027381295
6.507130532,-3.806681633,6.516852379,2.319841623,7.895685856,7.895685856244586
6.509636574,-3.847359657,6.574280262,2.303091764,7.957862085,7.957862085198423
6.512142667,-3.878466368,6.636493683,2.291127682,8.020898692,8.02089869200657
6.514648709,-3.909573078,6.708278179,2.26241374,8.087290876,8.087290875813157
6.517154803,-3.93828702,6.79920578,2.209771633,8.162254257,8.16225425729298
6.519660844,-3.959822416,6.870990276,2.178664923,8.224188823,8.224188822361342
6.522166938,-3.974179268,6.945167542,2.147558212,8.28501414,8.285014140879904
6.52467298,-3.986143351,7.022037029,2.109273195,8.34550036,8.345500360224912
6.527179074,-3.990929127,7.11296463,2.063809633,8.413149905,8.413149905096878
6.529685115,-3.998107433,7.196712971,1.98963201,8.469721139,8.469721138738048
6.532191209,-3.990929127,7.266105175,1.922333837,8.509945187,8.509945187354258
6.534697251,-3.978965044,7.352246761,1.888834357,8.570612025,8.570612025065218
6.537203344,-3.983750582,7.435995579,1.838585138,8.633926931,8.633926931597658
6.539709386,-3.967000723,7.514958382,1.778764486,8.681917836,8.681917836292245
6.54221548,-3.947858334,7.599006653,1.735693693,8.737455014,8.737455014681993
6.544721521,-3.964607954,7.68275547,1.704586983,8.811836621,8.811836620327684
6.547227615,-3.971786499,7.754539967,1.704586983,8.877702116,8.8777021168798
6.549733657,-3.96939373,7.831110477,1.699801445,8.942689911,8.942689910712916
6.552239751,-3.950251102,7.876574039,1.704586983,8.974994103,8.974994102689653
6.554745792,-3.95503664,7.945965767,1.72372961,9.04167742,9.041677419730762
6.557251886,-3.952643871,7.986643791,1.754836321,9.082363301,9.082363300858072
6.559757928,-3.950251102,8.01775074,1.826620936,9.122793144,9.122793143629657
6.562264021,-3.947858334,8.046463966,1.910369754,9.164097358,9.164097357539788
6.564770063,-3.945465326,8.072785378,2.025524378,9.210825663,9.210825663521767
6.567276157,-3.95503664,8.106285095,2.142772675,9.270687548,9.270687547420001
6.569782199,-3.959822416,8.164011955,2.264806747,9.352039049,9.35203904872599
6.572288292,-3.971786499,8.195118904,2.379662037,9.412643266,9.41264326609034
6.574794334,-3.974179268,8.25254631,2.504088879,9.495740233,9.495740232695242
6.577300428,-3.964607954,8.336295128,2.607279301,9.592175876,9.592175876382775
6.579806469,-3.943072557,8.429615021,2.743670225,9.702265555,9.702265554786
6.582312563,-3.92392993,8.513363838,2.851347208,9.798202429,9.798202428725654
6.584818605,-3.919144392,8.597112656,2.932703257,9.892966551,9.892966550985545
6.587324699,-3.916751623,8.71705246,3.014059305,10.02060379,10.020603792223415
6.58983074,-3.926322937,8.848658562,3.085843801,10.16057095,10.16057095426425
6.592336834,-3.92392993,8.977870941,3.186641455,10.30311004,10.303110039765981
6.594842876,-3.93828702,9.085547447,3.270390272,10.42845768,10.428457680538427
6.597348969,-3.943072557,9.214759827,3.349353552,10.56777124,10.567771244465629
6.599855011,-3.967000723,9.327521324,3.394817114,10.68945892,10.68945892098681
6.602361105,-3.986143351,9.466305733,3.433102369,10.82988804,10.829888038266306
6.604867146,-3.990929127,9.593125343,3.473780155,10.95548802,10.955488017816354
6.60737324,-4.005286217,9.719944954,3.512065411,11.08396369,11.083963688140757
6.609879282,-4.014857292,9.861420631,3.531208038,11.21767026,11.217670263663209
6.612385376,-4.055535316,10.00738239,3.550350666,11.36662038,11.36662037945193
6.614891417,-4.081856251,10.13659477,3.564707518,11.49431354,11.494313536436392
6.617397511,-4.136891365,10.26819992,3.581457376,11.63514661,11.635146612699145
6.619903553,-4.167997837,10.41446114,3.626920938,11.78930711,11.78930711688815
6.622409699,-4.191926003,10.55803108,3.66789794,11.93724169,11.937241691409694
6.62491574,-4.218546391,10.73031425,3.715754509,12.11373639,12.113736381807472
6.627421782,-4.252045631,10.89781189,3.789932013,12.29657597,12.296575974680668
6.629927876,-4.256831646,11.07757282,3.84257412,12.47391723,12.473917232068025
6.632433917,-4.290330887,11.27139091,3.871287823,12.66641471,12.666414708767627
6.634939959,-4.287938118,11.45324516,3.878466368,12.82987683,12.829876825853315
6.637446105,-4.28315258,11.61625671,3.876073599,12.97330962,12.973309620950449
6.639952146,-4.295116425,11.79571819,3.852145433,13.13110876,13.131108755896603
6.642458188,-4.271188259,11.95125198,3.811467409,13.25151904,13.251519039081616
6.644964282,-4.26879549,12.07597733,3.739682674,13.34305324,13.343053245503222
6.647470376,-4.259224415,12.19322586,3.687040567,13.43167963,13.43167962814065
6.649976417,-4.254438877,12.30568886,3.614956856,13.51288798,13.512887979554872
6.652482459,-4.240081787,12.4109726,3.540779352,13.58483172,13.584831719898093
6.654988553,-4.218546391,12.49950695,3.468994617,13.64066462,13.64066462086406
6.657494594,-4.206283092,12.56650639,3.36849618,13.67320982,13.673209821202574
6.660000688,-4.213760853,12.6625185,3.301496983,13.7475466,13.74754660358988
6.66250673,-4.196712017,12.76780224,3.244069338,13.82581468,13.825814683523463
6.665012824,-4.199104786,12.89701462,3.186641455,13.93270077,13.932700774617473
6.667518865,-4.184747696,13.05733395,3.165106058,14.07209933,14.072099328791998
6.670024959,-4.203890324,13.23709488,3.145963669,14.24045161,14.240451612396672
6.672531001,-4.240081787,13.44766331,3.189034462,14.45641321,14.456413208655627
6.675037042,-4.26879549,13.67258835,3.244069338,14.68626137,14.686261368835563
6.677543188,-4.307080746,13.90020561,3.296711445,14.92095731,14.920957305227885
6.68004923,-4.34775877,14.10838127,3.366103172,15.14199719,15.141997191465437
6.682555271,-4.39800787,14.28544998,3.425923824,15.33471579,15.334715791416373
6.685061365,-4.455435753,14.4508543,3.4809587,15.5175762,15.517576203133169
6.687567459,-4.517649174,14.59442329,3.526422262,15.67934945,15.679349450693625
6.690073501,-4.565505505,14.68535042,3.557528973,15.78478286,15.78478285780688
6.692579542,-4.601397991,14.73081398,3.571886063,15.84071065,15.840710654260304
6.695085636,-4.649254322,14.73799324,3.550350666,15.85651287,15.856512868360685
6.697591678,-4.699503899,14.67817211,3.533600807,15.81203365,15.812033646900993
6.700097771,-4.728217602,14.60878086,3.488137245,15.74609861,15.746098607189056
6.702603813,-4.721039295,14.51546001,3.428316593,15.64417291,15.64417290842448
6.705109907,-4.697110653,14.3814621,3.3852458,15.50319934,15.503199339061604
6.707615949,-4.639683247,14.23998642,3.35413909,15.34777257,15.347772571593016
6.710122042,-4.567898273,14.12273788,3.306282759,15.206871,15.206870997747169
6.712628084,-4.474578381,14.00070477,3.282354355,15.06039295,15.060392951586648
6.715134178,-4.34775877,13.83320713,3.256033421,14.86143935,14.86143934692275
6.717640219,-4.235296249,13.68215942,3.19382,14.67445764,14.674457635752274
6.720146313,-4.110570431,13.50509071,3.148356438,14.46362378,14.463623771871138
6.722652355,-3.971786499,13.31366539,3.0981071,14.23471256,14.234712561677982
6.725158449,-3.823431492,13.1458683,3.016452074,14.01896804,14.018968037972735
6.72766449,-3.706183195,13.00229931,2.927917719,13.83359257,13.833592569935007
6.730170584,-3.59102869,12.82762337,2.834597588,13.61904372,13.6190437204992
6.732676626,-3.4809587,12.65773296,2.734098911,13.40934652,13.409346516997292
6.735182719,-3.387638569,12.49472141,2.667099953,13.21769951,13.217699510390656
6.737688761,-3.291925669,12.32483101,2.602493763,13.01964699,13.019646992976906
6.740194855,-3.205784082,12.15733337,2.547458887,12.82838077,12.828380764175789
6.742700896,-3.138785124,11.99671555,2.520838737,12.65416073,12.654160737884407
6.74520699,-3.07148695,11.84836006,2.504088879,12.4935235,12.493523494569295
6.747713032,-3.023630619,11.72632694,2.50169611,12.36558001,12.365580012709199
6.750219126,-2.968595505,11.59232807,2.523231506,12.22952684,12.229526834170125
6.752725167,-2.954238653,11.47238827,2.535494804,12.11494748,12.114947483898716
6.755231261,-2.932703257,11.35274696,2.568994284,12.00355546,12.003555455057151
6.757737303,-2.930310488,11.21874905,2.705385208,11.90655949,11.906559491583785
6.760243396,-2.915953398,11.16371441,2.865704298,11.88879997,11.888799971861125
6.762749438,-2.939881802,11.08235836,2.841775894,11.81258913,11.81258913451713
6.765255532,-3.037987471,10.97228813,2.746062994,11.71158984,11.711589842916636
6.767761574,-3.117249727,10.93609715,2.755634308,11.70081138,11.700811389563817
6.770267667,-3.117249727,11.03210926,2.808276415,11.8030122,11.803012200625083
6.772773709,-3.061915636,11.17567825,2.789133787,11.91848896,11.91848895587395
6.775279803,-2.97577405,11.25942707,2.738884687,11.96375436,11.963754363492475
6.777785844,-2.961417198,11.249856,2.717349291,11.94626464,11.946264646769063
6.780291938,-3.00688076,11.15892887,2.784348249,11.88762468,11.887624682933383
6.78279798,-3.102892876,11.11825085,2.858525753,11.89178774,11.891787739613482
6.785304074,-3.145963669,11.18524933,2.767598391,11.94430788,11.944307884293638
6.787810115,-3.198605776,11.28096199,2.571387053,12.0042998,12.004299800755616
6.790316209,-3.248854876,11.40060329,2.348555326,12.08488832,12.08488831146365
6.792822251,-3.282354355,11.52532959,2.159522533,12.17664198,12.17664197718122
6.795328344,-3.330210924,11.62343502,2.07098794,12.26717317,12.267173167038802
6.797834386,-3.406781197,11.72154045,2.097309113,12.3854501,12.385450099237081
6.80034048,-3.497708559,11.7717905,2.14995122,12.46720927,12.467209270240538
6.802846521,-3.569493294,11.79571819,2.185843468,12.51631582,12.516315818179331
6.805352615,-3.648755312,11.77896881,2.164308071,12.51965459,12.519654587088128
6.807858657,-3.746861219,11.73589802,2.11645174,12.49998557,12.49998557191308
6.810364751,-3.823431492,11.70479107,2.008774519,12.47621487,12.476214868082097
6.812870792,-3.880859137,11.64975643,1.8840487,12.42286328,12.422863277986055
6.815376938,-3.935894251,11.59950733,1.747657895,12.37312176,12.373121755310354
6.81788298,-3.964607954,11.58514977,1.635195136,12.35344788,12.3534478812617
6.820389021,-4.01964283,11.58036423,1.546660781,12.35534393,12.355343934982846
6.822895115,-4.050749779,11.57318592,1.482054472,12.35085793,12.350857928457035
6.825401209,-4.081856251,11.58514977,1.43659091,12.36693329,12.366933293660697
6.827907251,-4.077070713,11.59232807,1.39561379,12.36738912,12.367389115417629
6.830413292,-4.086641788,11.59711361,1.335793257,12.36842871,12.36842871233536
6.832919386,-4.117748737,11.59232807,1.295115232,12.36993324,12.369933233762154
6.835425428,-4.14646244,11.57318592,1.237687469,12.35571339,12.3557133900126
6.837931521,-4.158426762,11.51575851,1.163509965,12.29873826,12.298738253748208
6.840437563,-4.182354927,11.43410301,1.079761267,12.22279382,12.22279382025262
6.842943657,-4.196712017,11.34317589,0.9888339639,12.13498346,12.13498346242267
6.845449699,-4.177569389,11.22114182,0.9170492887,12.00862561,12.008625614214473
6.847955792,-4.165605068,11.09910774,0.8524430394,11.88566857,11.885668569419925
6.850461834,-4.124927044,10.96271706,0.7707880139,11.73841141,11.738411418003269
6.852967928,-4.045963764,10.804492,0.7325028181,11.56042519,11.56042518838254
6.855473969,-3.983750582,10.63699436,0.7109674215,11.38074657,11.380746565524227
6.857980063,-3.895216227,10.4718895,0.7157530785,11.19577963,11.19577963451749
6.860486105,-3.816252947,10.33280659,0.7253243923,11.03887558,11.038875579328675
6.862992199,-3.69900465,10.1772728,0.7348956466,10.85355189,10.85355189132724
6.86549824,-3.581457376,10.0145607,0.7396813035,10.66139725,10.661397252744912
6.868004334,-3.492922783,9.875777245,0.742074132,10.50153131,10.501531306349747
6.870510376,-3.378067255,9.751050949,0.7444669604,10.3464276,10.346427598182101
6.873016469,-3.282354355,9.605089188,0.7348956466,10.17701626,10.177016263749096
6.875522511,-3.186641455,9.475876808,0.737288475,10.02449596,10.024495964310855
6.878028605,-3.088535786,9.34427166,0.7564310431,9.870494115,9.87049411530381
6.880534646,-2.994916677,9.20758152,0.7564310431,9.711913883,9.711913883091405
6.88304074,-2.915953398,9.075976372,0.7636095285,9.563431959,9.563431959104744
6.885546782,-2.858525753,8.934800148,0.7827520967,9.413528776,9.413528775658643
6.888052876,-2.801098108,8.819944382,0.8090731502,9.289357829,9.289357828966924
6.890558917,-2.765205622,8.678468704,0.8401798606,9.147025931,9.147025930673077
6.893065011,-2.714956284,8.554041862,0.8620143533,9.015857616,9.015857615677763
6.895571053,-2.676671267,8.422436714,0.8859425783,8.881829965,8.88182996487567
6.898077146,-2.638386011,8.309973717,0.9122636318,8.766354365,8.766354365081087
6.900583188,-2.609672308,8.185546875,0.8979067206,8.638275504,8.638275503644403
6.903089282,-2.573779821,8.077570915,0.8907282352,8.524370431,8.52437043087777
6.905595324,-2.554637194,7.97467947,0.9002995491,8.422126995,8.422126995024318
6.908101417,-2.547458887,7.864609718,0.9098708034,8.316820166,8.316820166162971
6.910607459,-2.513660192,7.771289825,0.9122636318,8.218494877,8.218494876733752
6.913113553,-2.477767944,7.689933777,0.9218349457,8.131678495,8.131678495001706
6.915619594,-2.458625317,7.610970497,0.9314061999,8.052280911,8.052280910699151
6.918125688,-2.439482689,7.541279793,0.955334425,7.983397808,7.983397808566906
6.92063173,-2.432304144,7.459923744,0.9601200819,7.904960233,7.904960233099355
6.923137824,-2.42273283,7.395317554,0.9314061999,7.837593611,7.837593610239849
6.925643865,-2.408375978,7.333104134,0.8979067206,7.770516557,7.770516557500795
6.928149959,-2.42273283,7.278069019,0.8668000102,7.719537892,7.719537892164929
6.930656001,-2.420340061,7.244569778,0.8476574421,7.685073872,7.685073872015803
6.933162094,-2.429911375,7.196712971,0.8330013752,7.641402892,7.641402892689217
6.935668136,-2.408375978,7.172784805,0.8042874932,7.608941785,7.608941784634989
6.93817423,-2.384447813,7.167999268,0.789930582,7.595379859,7.595379859055627
6.940680271,-2.377269268,7.179963589,0.7779664397,7.60319131,7.603191309788444
6.943186365,-2.370090723,7.203891754,0.7564310431,7.621389267,7.621389267158921
6.945692407,-2.334198475,7.258926392,0.7037889361,7.657402546,7.657402546016712
6.948198501,-2.298306227,7.282855034,0.6726822853,7.666465314,7.666465314359842
6.950704542,-2.26241374,7.321139812,0.6367899179,7.689155057,7.689155056137916
6.953210688,-2.233700037,7.366603374,0.6128616929,7.722166832,7.7221668319032215
6.95571673,-2.219342947,7.388139248,0.5745765567,7.735646249,7.7356462486172335
6.958222771,-2.207378864,7.414460182,0.5243272781,7.753815857,7.753815856354674
6.960728865,-2.176272154,7.431210041,0.4812564552,7.758263397,7.758263397011389
6.963234907,-2.147558212,7.416852951,0.4190430641,7.73287211,7.732872109394824
6.965741001,-2.121237278,7.40488863,0.3640081584,7.711324474,7.7113244745414455
6.968247042,-2.099701881,7.414460182,0.3376871049,7.71342987,7.713429870061318
6.970753136,-2.073380709,7.397710323,0.2850449979,7.688060629,7.688060629203045
6.973259178,-2.027917147,7.349853992,0.2368894368,7.628166114,7.628166114085507
6.975765271,-2.013560295,7.316354275,0.1938186288,7.59085177,7.590851770373413
6.978271313,-1.999203324,7.270890713,0.1507478207,7.542240423,7.5422404228802
6.980777407,-1.958226204,7.218248844,0.09810572863,7.479798859,7.479798859189303
6.983283449,-1.93190515,7.156035423,0.04307080805,7.412351556,7.412351555230862
6.985789542,-1.891227245,7.105785847,0.02871387079,7.353214092,7.353214091948605
6.988295584,-1.831406593,7.074679375,0.02153540403,7.307913665,7.307913665442483
6.990801678,-1.802692771,7.017251492,0.007178467698,7.245106711,7.245106711359769
6.993307719,-1.742872238,6.973881721,0.0143569354,7.188382017,7.188382016704672
6.995813813,-1.690230131,6.909275532,0.0382851623,7.113116899,7.113116899537537
6.998319855,-1.637588024,6.866204739,0.06939185411,7.059127232,7.059127232429735
7.000825949,-1.58016026,6.837490559,0.0933200866,7.018325457,7.018325457704311
7.00333199,-1.510768414,6.796812534,0.1196411327,6.96371997,6.9637199702252035
7.005838084,-1.474876046,6.746563435,0.1579262912,6.907699924,6.907699924504233
7.008344126,-1.412662625,6.696314335,0.1579262912,6.845522776,6.8455227761399335
7.010850219,-1.369292736,6.648457527,0.1818545163,6.790436006,6.790436005904483
7.013356261,-1.335793257,6.598208427,0.2105683982,6.735357238,6.735357237882858
7.015862355,-1.309472203,6.552744865,0.2177468538,6.685850463,6.6858504626227875
7.018368396,-1.285543919,6.507281303,0.2273181528,6.63694257,6.63694256918377
7.02087449,-1.259222865,6.46421051,0.2512463629,6.590507149,6.5905071486345985
7.023380532,-1.247258782,6.420840263,0.2850449979,6.54706765,6.547067649189661
7.025886626,-1.254437327,6.382555485,0.3161516786,6.512340548,6.512340547787415
7.028392667,-1.252044439,6.344270229,0.347258389,6.475953089,6.475953088506541
7.030898761,-1.242473125,6.315556049,0.3783650696,6.447724235,6.447724234200868
7.033404803,-1.223330617,6.270092487,0.4094717801,6.401426774,6.401426773206245
7.035910896,-1.21854496,6.234200478,0.4597210586,6.368787237,6.368787237077177
7.038416938,-1.228116274,6.181558132,0.5003990531,6.322209245,6.322209244726272
7.040923084,-1.228116274,6.15045166,0.5650052428,6.297265766,6.297265766096574
7.043429126,-1.240080357,6.138487339,0.6152545214,6.29264366,6.292643659781134
7.045935167,-1.242473125,6.102594852,0.6726822853,6.264016671,6.26401667071222
7.048441261,-1.252044439,6.097809315,0.7444669604,6.269379935,6.269379935405001
7.050947355,-1.256830096,6.08584547,0.7731808424,6.262183772,6.262183771655481
7.053453396,-1.278365493,6.073881149,0.818644464,6.260705177,6.260705176280747
7.055959438,-1.295115232,6.054738522,0.8572286963,6.250761799,6.250761799309693
7.058465532,-1.323829174,6.030810356,0.8811569214,6.236957171,6.236957170936923
7.060971574,-1.36211431,6.045167446,0.9290133715,6.265977233,6.26597723329017
7.063477667,-1.386042476,6.083452702,0.9577272534,6.312428377,6.312428376991886
7.065983709,-1.431805253,6.088238239,0.9768698215,6.330164752,6.330164751844746
7.068489803,-1.482054472,6.100202084,1.000798106,6.356929115,6.35692911495687
7.070995844,-1.522732496,6.12173748,0.9816554785,6.384201713,6.384201712577713
7.073501938,-1.575374603,6.160022736,0.9768698215,6.43288115,6.432881150462193
7.07600798,-1.620838284,6.234200478,0.9625129104,6.512971936,6.512971936486612
7.078514074,-1.671087503,6.308377743,0.9337990284,6.592430797,6.592430797247806
7.081020115,-1.750050664,6.387341022,0.8979067206,6.683340418,6.68334041754492
7.083526209,-1.785943031,6.480959892,0.8835497499,6.780346141,6.780346141034282
7.086032251,-1.843370795,6.571887493,0.8524430394,6.878544922,6.878544921996967
7.088538344,-1.915155411,6.655636311,0.8306085467,6.975329777,6.975329777898343
7.091044386,-1.987239242,6.758527756,0.8090731502,7.090939049,7.0909390489512525
7.09355048,-2.066202402,6.873383045,0.7707880139,7.218497144,7.218497143567762
7.096056521,-2.140379906,6.993024349,0.7301099896,7.349603818,7.349603818208785
7.098562615,-2.224128723,7.089035988,0.7181459069,7.464376287,7.464376287355158
7.101068657,-2.300698996,7.203891754,0.684646368,7.593287359,7.593287359422149
7.103574751,-2.37248373,7.321139812,0.6631109715,7.724473015,7.724473014807534
7.106080792,-2.456232548,7.421638489,0.6463612318,7.844206718,7.844206717905565
7.108586886,-2.533101797,7.534101009,0.632004261,7.973626033,7.973626032972803
7.111092928,-2.607279301,7.644470215,0.6248258352,8.101002255,8.101002255633471
7.113599021,-2.698206663,7.771289825,0.6296114326,8.250434855,8.250434854991994
7.116105063,-2.779562712,7.898109436,0.6296114326,8.396577403,8.39657740326579
7.118611157,-2.870489836,8.03928566,0.6296114326,8.559569871,8.559569871069547
7.121117199,-2.949453115,8.183154106,0.6487540603,8.722623839,8.7226238386671
7.123623292,-3.023630619,8.300402641,0.660718143,8.858644061,8.858644060315521
7.126129334,-3.107678413,8.40329361,0.6726822853,8.984737618,8.984737618397627
7.12863548,-3.222533941,8.499007225,0.6870391965,9.115364593,9.115364593313124
7.131141521,-3.308675528,8.589934349,0.7037889361,9.231989208,9.231989207981826
7.133647563,-3.382853031,8.661719322,0.6918248534,9.324574943,9.324574943140087
7.136153657,-3.473780155,8.743373871,0.7037889361,9.434460985,9.43446098512968
7.138659699,-3.564707518,8.807980537,0.7181459069,9.529081508,9.529081507294066
7.141165792,-3.646063566,8.839086533,0.7348956466,9.589749834,9.58974983388859
7.143671834,-3.737289906,8.865407944,0.7468597889,9.649901211,9.649901211893495
7.146177928,-3.818645954,8.884550095,0.7707880139,9.701103106,9.701103106087317
7.148683969,-3.878466368,8.92283535,0.818644464,9.763691454,9.763691454022632
7.151190063,-3.945465326,8.918049812,0.8596215248,9.789650569,9.789650568528021
7.153696105,-4.000500202,8.941978455,0.902692318,9.837572565,9.837572565265399
7.156202199,-4.057928085,8.958727837,0.950548768,9.880745304,9.88074530391391
7.15870824,-4.09860611,8.994620323,0.9912267923,9.933997048,9.933997048199043
7.161214334,-4.127319813,9.008976936,1.041476011,9.963990494,9.963990493454457
7.163720376,-4.167997837,9.037691116,1.125224829,10.01589724,10.015897243545385
7.166226469,-4.199104786,9.066405296,1.206580877,10.06419512,10.064195119724529
7.168732511,-4.216153622,9.107083321,1.297508121,10.11921169,10.119211693803082
7.171238605,-4.230510235,9.169296265,1.412662625,10.19651051,10.196510507808766
7.173744646,-4.237689018,9.241081238,1.529910922,10.2808666,10.280866602084101
7.17625074,-4.254438877,9.296415329,1.66151619,10.35780982,10.357809815642847
7.178756782,-4.259224415,9.36580658,1.759621978,10.43817968,10.43817967927186
7.181262876,-4.266402721,9.478269577,1.872084618,10.56146236,10.56146235939854
7.183768917,-4.264009953,9.607481956,1.946262121,10.68987496,10.689874959876196
7.186275011,-4.26879549,9.75583744,2.011167526,10.83714787,10.83714786781038
7.188781053,-4.26879549,9.928419113,2.07098794,11.00386805,11.003868050210958
7.191287146,-4.285545349,10.14138031,2.111665964,11.21038031,11.210380309066561
7.193793188,-4.307080746,10.34955597,2.145165443,11.41341264,11.413412640685868
7.196299282,-4.326223373,10.61785126,2.161915302,11.66742696,11.667426958228488
7.198805324,-4.388436794,10.91456127,2.185843468,11.96511333,11.965113324917374
7.201311469,-4.421936035,11.2067852,2.224128723,12.25121632,12.251216323004186
7.203817511,-4.493721008,11.47478104,2.260020971,12.52883966,12.528839659084309
7.206323553,-4.572684288,11.74307632,2.288734913,12.80810644,12.80810643916781
7.208829646,-4.670789719,11.96800137,2.329412937,13.05662659,13.056626594281576
7.211335688,-4.754538536,12.15494061,2.374876499,13.26605654,13.266056547008937
7.213841782,-4.850550652,12.30329609,2.427518606,13.44588349,13.445883492292468
7.216347824,-4.946263313,12.39900875,2.456232548,13.57328321,13.573283209082497
7.218853917,-5.022833824,12.46600819,2.520838737,13.6742403,13.674240298993773
7.221359959,-5.097011566,12.50189972,2.578565598,13.74503634,13.745036342478798
7.223866053,-5.18793869,12.49711418,2.626421928,13.78371005,13.783710052922444
7.226372094,-5.264508724,12.47797203,2.710170746,13.8115844,13.811584397128687
7.228878188,-5.31715107,12.42054367,2.803490877,13.79860724,13.798607236130808
7.23138423,-5.370092392,12.33679581,2.882453918,13.7601949,13.76019490216775
7.233890324,-5.401198864,12.2099762,2.94227457,13.67162929,13.671629296404655
7.236396365,-5.401198864,12.06371403,2.994916677,13.55269978,13.552699777840077
7.238902459,-5.377270699,11.88185978,2.987738132,13.37984346,13.379843464977924
7.241408501,-5.307579517,11.65693474,2.985345364,13.15168486,13.151684865607644
7.243914594,-5.219045162,11.41496086,3.009273529,12.90718757,12.907187571685308
7.246420636,-5.132903576,11.1445713,3.131606579,12.66314054,12.663140540439935
7.24892673,-5.025226593,10.90259743,3.361317635,12.46667515,12.466675149172652
7.251432771,-4.874478817,10.75184917,3.569493294,12.33304856,12.333048556124409
7.253938865,-4.673182487,10.66092205,3.626920938,12.19214702,12.192147021894154
7.256444907,-4.455435753,10.58674431,3.663112402,12.05605471,12.056054715540828
7.258951001,-4.237689018,10.56520939,3.643670797,11.95232172,11.952321721938905
7.261457042,-4.089034557,10.48624611,3.547957659,11.80125267,11.801252672402496
7.263963136,-3.998107433,10.44078255,3.442673683,11.69815393,11.698153930848026
7.266469178,-3.916751623,10.38066292,3.325425386,11.58264045,11.582640455992292
7.268975271,-3.840181351,10.30409241,3.215355396,11.45686796,11.456867963146566
7.271481313,-3.766003847,10.26102161,3.153141975,11.37601221,11.376012208635007
7.273987407,-3.672683716,10.24427223,3.196212769,11.34237609,11.342376085496346
7.276493449,-3.598206997,10.26341438,3.318246841,11.37081925,11.370819250461114
7.278999594,-3.528815269,10.32562828,3.437887907,11.44072593,11.440725931537742
7.281505636,-3.459423304,10.38335514,3.557528973,11.50815737,11.508157365684445
7.284011678,-3.380460262,10.47428226,3.689433336,11.60818758,11.608187575409863
7.286517771,-3.308675528,10.59392357,3.787539244,11.72706288,11.727062883835307
7.289023813,-3.232105255,10.70399284,3.84257412,11.82316975,11.823169751207315
7.291529907,-3.165106058,10.83320522,3.892823458,11.93860571,11.93860570469511
7.294035949,-3.066701412,10.96750259,3.892823458,12.0351504,12.035150397364156
7.296542042,-2.959024191,11.09910774,3.880859137,12.12464781,12.124647806360707
7.299048084,-2.865704298,11.20917797,3.85932374,12.19640569,12.196405684333257
7.301554178,-2.769991398,11.3575325,3.844966888,12.30650914,12.306509139612526
7.304060219,-2.650350094,11.50857925,3.837788343,12.41774422,12.417744213018846
7.306566313,-2.552244425,11.61864948,3.782753468,12.48263559,12.48263558483199
7.309072355,-2.456232548,11.71436214,3.734897137,12.53829396,12.538293954956183
7.311578449,-2.346162558,11.79093266,3.715754509,12.58321911,12.583219115646425
7.31408449,-2.26241374,11.87707424,3.679862022,12.63822745,12.638227444320279
7.316590584,-2.200200319,11.92732334,3.607778311,12.65377366,12.65377366013627
7.319096626,-2.104487419,11.95125198,3.540779352,12.64113957,12.641139569110562
7.321602719,-2.042274237,11.93928814,3.488137245,12.60494295,12.60494295064499
7.324108761,-1.977667928,11.92014503,3.401995659,12.55287228,12.55287227822893
7.326614855,-1.924726725,11.84836006,3.313461065,12.45259946,12.452599459815742
7.329120896,-1.888834357,11.77896881,3.217748165,12.3557964,12.355796401223893
7.33162699,-1.857727647,11.67607689,3.148356438,12.23495287,12.234952873318159
7.334133032,-1.838585138,11.54925728,3.102892876,12.09932573,12.099325734487813
7.336639178,-1.75722909,11.40060329,3.059522867,11.93408102,11.934081012981139
7.339145219,-1.64476645,11.26181984,2.937488794,11.75426234,11.7542623417439
7.341651261,-1.520339727,11.11107159,2.726920605,11.5413795,11.541379499417438
7.344157355,-1.422233939,10.98425198,2.592922449,11.37540275,11.375402751722927
7.346663396,-1.376471281,10.89302635,2.557030201,11.27346884,11.273468840513917
7.34916949,-1.338186026,10.7925272,2.568994284,11.17448508,11.174485081387248
7.351675532,-1.299900889,10.68724346,2.561815739,11.06660811,11.066608106150857
7.354181626,-1.259222865,10.55324554,2.504088879,10.91911603,10.919116024898727
7.356687667,-1.228116274,10.43599701,2.432304144,10.78584288,10.785842879632177
7.359193761,-1.21854496,10.32802105,2.365305185,10.66524914,10.66524914134557
7.361699803,-1.206580877,10.25623608,2.32701993,10.58589805,10.585898058079582
7.364205896,-1.225723386,10.19162941,2.370090723,10.5351335,10.535133501053268
7.366711938,-1.268794179,10.11745262,2.425125837,10.48112215,10.48112214945967
7.369218032,-1.299900889,10.08156013,2.48733902,10.46491531,10.464915306701872
7.371724074,-1.328614831,10.05523872,2.542673111,10.45649223,10.456492224199414
7.374230167,-1.335793257,10.03609657,2.600100994,10.45313844,10.453138436221545
7.376736209,-1.323829174,10.02413273,2.65513587,10.45397088,10.453970879945642
7.379242303,-1.335793257,10.01934624,2.67188549,10.45517167,10.45517167597555
7.381748344,-1.323829174,9.988240242,2.693420887,10.42938075,10.42938075287165
7.384254438,-1.299900889,9.973882675,2.695813894,10.41323631,10.413236311875938
7.38676048,-1.278365493,9.93559742,2.679064035,10.36955633,10.369556332342974
7.389266574,-1.259222865,9.897313118,2.65513587,10.32434965,10.324349648652662
7.391772615,-1.252044439,9.854242325,2.647957325,10.28033974,10.280339735245786
7.394278709,-1.261615753,9.784550667,2.652743101,10.21597533,10.21597533391751
7.396784751,-1.242473125,9.681659698,2.669492722,10.11950915,10.119509146546372
7.399290896,-1.259222865,9.552447319,2.679064035,10.00061379,10.000613786645276
7.401796938,-1.285543919,9.418449402,2.679064035,9.876092163,9.876092162861914
7.40430298,-1.319043517,9.245866776,2.707777977,9.724093264,9.724093264258965
7.406809074,-1.328614831,9.054440498,2.738884687,9.552465621,9.552465620438461
7.409315115,-1.359721422,8.836693764,2.772384167,9.360668405,9.36066840527932
7.411821209,-1.37886405,8.628219604,2.813062191,9.17936591,9.179365909128258
7.414327251,-1.41984117,8.412865639,2.829811811,8.988887144,8.988887144333772
7.416833344,-1.443769336,8.199904442,2.839383125,8.796874404,8.796874404243814
7.419339386,-1.472483277,7.965108395,2.84656167,8.58568996,8.58568995982602
7.42184548,-1.508375525,7.764111042,2.841775894,8.4043029,8.40430289962498
7.424351521,-1.546660781,7.558029652,2.832204819,8.218111457,8.21811145755286
7.426857615,-1.577767372,7.376174927,2.784348249,8.040516252,8.040516252428112
7.429363657,-1.625623941,7.175177574,2.71974206,7.843648596,7.843648595450841
7.431869751,-1.671087503,6.995417118,2.633600473,7.659258812,7.659258811978873
7.434375792,-1.697408557,6.847062111,2.540280342,7.497764972,7.497764972124708
7.436881886,-1.742872238,6.713063717,2.43708992,7.351342421,7.351342420582691
7.439387928,-1.769193292,6.567101955,2.331805706,7.189867234,7.189867233986784
7.441894021,-1.80508554,6.439982891,2.214557409,7.045280545,7.045280545219374
7.444400063,-1.831406593,6.337091446,2.111665964,6.926175803,6.926175802516587
7.446906157,-1.869691849,6.241378784,2.015953064,6.820163011,6.820163010649624
7.449412199,-1.886441588,6.15045166,1.93190515,6.717065952,6.717065951405363
7.451918292,-1.934298038,6.081059456,1.840977907,6.641535415,6.641535414441435
7.454424334,-1.97527504,6.026024818,1.766800404,6.583028958,6.583028957734691
7.456930428,-2.011167526,6.011667728,1.706979871,6.564961841,6.564961840674538
7.459436469,-2.035095692,5.973382473,1.632802367,6.51835533,6.518355330451183
7.461942563,-2.073380709,5.935097694,1.570588946,6.480049525,6.480049524430725
7.464448605,-2.087737799,5.942276001,1.522732496,6.479815386,6.479815386552946
7.466954751,-2.109273195,5.935097694,1.486840129,6.471870798,6.4718707973563845
7.469460792,-2.147558212,5.918347836,1.438983679,6.458290904,6.45829090473965
7.471966834,-2.19780755,5.915955067,1.4054842,6.465622028,6.465622028703009
7.474472928,-2.236092806,5.903990746,1.371685624,6.460552547,6.460552547343521
7.476978969,-2.250449657,5.901597977,1.340578914,6.456820747,6.456820747510598
7.479485063,-2.305484533,5.884549141,1.321436286,6.456730704,6.456730703901436
7.481991105,-2.348555326,5.899205208,1.31425786,6.48410425,6.484104250237581
7.484497199,-2.396411896,5.908776283,1.316650629,6.510760019,6.510760018360353
7.48700324,-2.465803623,5.920740604,1.345364571,6.55327114,6.553271140122025
7.489509334,-2.511267424,5.918347836,1.359721422,6.571312466,6.57131246618019
7.492015376,-2.568994284,5.925526142,1.376471281,6.603503985,6.603503984868023
7.494521469,-2.62402916,5.956633091,1.39561379,6.656932076,6.656932075976492
7.497027511,-2.695813894,5.982954025,1.417448282,6.713591517,6.713591516356345
7.499533605,-2.755634308,5.985346794,1.417448282,6.739959667,6.739959667239669
7.502039646,-2.817847729,6.018846035,1.427019596,6.797290515,6.7972905149209035
7.50454574,-2.884846687,6.061916828,1.460519075,6.87039242,6.870392420053117
7.507051782,-2.963809967,6.090631008,1.474876046,6.932186881,6.932186880571256
7.509557876,-3.054737091,6.138487339,1.46769762,7.011888605,7.011888605072682
7.512063917,-3.124428272,6.191129684,1.465304732,7.087965629,7.087965628345021
7.514570063,-3.196212769,6.21505785,1.431805253,7.133918027,7.133918027709854
7.517076105,-3.2895329,6.243771553,1.402792215,7.195382958,7.195382957473427
7.519582146,-3.382853031,6.270092487,1.366899967,7.254389702,7.254389701736758
7.52208824,-3.452244759,6.308377743,1.3310076,7.313357974,7.3133579739869505
7.524594282,-3.535993576,6.322734833,1.299900889,7.360025045,7.360025044737809
7.527100376,-3.612564087,6.365805626,1.287936807,7.431882787,7.431882787660254
7.529606417,-3.701397419,6.389733791,1.271187067,7.492993883,7.4929938831240985
7.532112511,-3.768396616,6.439982891,1.247258782,7.565041121,7.565041120914617
7.534618553,-3.852145433,6.480959892,1.244866014,7.641436839,7.641436838154698
7.537124646,-3.897608995,6.526423931,1.2352947,7.701397159,7.701397159014881
7.539630688,-3.95503664,6.550352097,1.242473125,7.751978256,7.751978256210608
7.542136782,-4.026821613,6.612565517,1.256830096,7.843528346,7.843528345697029
7.544642824,-4.086641788,6.662814617,1.259222865,7.917031133,7.917031132165359
7.547148917,-4.139284134,6.727420807,1.280758262,8.002012596,8.002012595723773
7.549654959,-4.184747696,6.79920578,1.292722464,8.087795984,8.087795984499914
7.552161053,-4.211368084,6.873383045,1.326221943,8.16932557,8.16932556973475
7.554667094,-4.271188259,6.945167542,1.376471281,8.268801274,8.268801274531125
7.557173188,-4.29750967,7.031608582,1.427019596,8.363521599,8.36352159927668
7.55967923,-4.342973232,7.101000309,1.455733418,8.450135009,8.450135008777586
7.562185324,-4.390829563,7.17757082,1.494018674,8.545700611,8.54570061058138
7.564691365,-4.431507587,7.256533623,1.546660781,8.642204539,8.642204538591505
7.567197511,-4.465006828,7.335496902,1.606481314,8.736508627,8.736508626766724
7.569703553,-4.484149456,7.402495861,1.647159338,8.810089398,8.810089397992952
7.572209594,-4.527220249,7.46949482,1.721336842,8.902363538,8.902363538554747
7.574715688,-4.572684288,7.546065331,1.793121457,9.003767441,9.003767441299004
7.57722173,-4.610969067,7.632505894,1.874477386,9.112071522,9.112071522403728
7.579727824,-4.649254322,7.721040249,1.946262121,9.220518669,9.220518668760075
7.582233865,-4.687539577,7.804789066,2.003988981,9.322217091,9.322217090728145
7.584739959,-4.740181446,7.888537884,2.047059774,9.428085904,9.428085903651642
7.587246001,-4.800301552,7.97467947,2.08534503,9.538714354,9.538714354330923
7.589752094,-4.817050934,8.03928566,2.111665964,9.606936388,9.606936388222207
7.592258136,-4.845765114,8.125427246,2.118844509,9.695024988,9.69502498828229
7.59476423,-4.86730051,8.209475517,2.133201361,9.779399295,9.779399294713398
7.597270271,-4.864907742,8.293224335,2.14995122,9.852268137,9.852268137702465
7.599776365,-4.864907742,8.362615585,2.171486616,9.915443555,9.915443554583101
7.602282407,-4.855336189,8.429615021,2.19780755,9.973116711,9.973116711305392
7.604788501,-4.831408024,8.484649658,2.202593327,10.00915584,10.009155842403297
7.607294542,-4.80508709,8.53729248,2.240878344,10.0496647,10.049664700086138
7.609800636,-4.754538536,8.599505424,2.27677083,10.08666524,10.086665238821666
7.612306678,-4.711467743,8.647361755,2.310270309,10.11494649,10.114946491000985
7.614812824,-4.651647091,8.692825317,2.334198475,10.1317084,10.131708403412391
7.617318865,-4.584648132,8.755337715,2.348555326,10.15827983,10.158279830622677
7.619824907,-4.527220249,8.793622971,2.353341103,10.16669772,10.166697717849377
7.622331001,-4.467400074,8.84387207,2.343769789,10.18160073,10.181600730510423
7.624837094,-4.39800787,8.896514893,2.35812664,10.20054958,10.200549579127118
7.627343136,-4.304687977,8.930013657,2.338984251,10.18559423,10.185594230085984
7.629849178,-4.184747696,8.989834785,2.338984251,10.18823292,10.188232921719022
7.632355271,-4.079463482,9.035298347,2.350948334,10.18850316,10.188503157452024
7.634861313,-3.986143351,9.075976372,2.322234392,10.18113248,10.181132475869832
7.637367407,-3.885644913,9.121439934,2.312663078,10.18073246,10.180732457531587
7.639873449,-3.799503326,9.150154114,2.293520451,10.16965004,10.16965003790157
7.642379542,-3.696611881,9.193224907,2.279163599,10.16734529,10.167345292673115
7.644885584,-3.593421459,9.241081238,2.283949137,10.17480633,10.174806331804078
7.647391678,-3.488137245,9.277272224,2.293520451,10.17325501,10.173255006010287
7.649897719,-3.397209883,9.301200867,2.303091764,10.1664942,10.16649419568216
7.652403813,-3.306282759,9.325128555,2.334198475,10.16553052,10.165530520854745
7.654909855,-3.222533941,9.370592117,2.408375978,10.19769565,10.197695645364544
7.657415949,-3.157927752,9.420842171,2.489732027,10.24321924,10.243219243187822
7.65992199,-3.073879719,9.456734657,2.592922449,10.27627431,10.276274311554387
7.662428136,-3.014059305,9.52134037,2.702992201,10.34633475,10.346334750727703
7.664934178,-2.961417198,9.583553314,2.810669184,10.41702199,10.417021993102336
7.667440219,-2.908775091,9.655338287,2.954238653,10.50780929,10.507809285731703
7.669946313,-2.884846687,9.74865818,3.093321562,10.62672645,10.626726448154667
7.672452355,-2.844168901,9.823135376,3.22492671,10.72303304,10.723033042824667
7.674958449,-2.832204819,9.93559742,3.366103172,10.86591601,10.86591601263446
7.67746449,-2.801098108,10.06959629,3.478565931,11.01559535,11.015595353431282
7.679970584,-2.786741018,10.22034359,3.612564087,11.19249605,11.192496052344174
7.682476626,-2.784348249,10.38335514,3.715754509,11.37424682,11.37424681929435
7.684982719,-2.796312332,10.56999493,3.801896095,11.57577511,11.575775109922326
7.687488761,-2.805883646,10.73749256,3.883252144,11.75782194,11.757821937962243
7.689994855,-2.832204819,10.92652512,3.926322937,11.95099774,11.950997746647355
7.692500896,-2.870489836,11.09671497,3.959822416,12.1267056,12.126705595101148
7.69500699,-2.875275612,11.27139091,3.983750582,12.29559806,12.295598057458527
7.697513032,-2.896811008,11.45563793,3.983750582,12.4697002,12.469700200843242
7.700019126,-2.939881802,11.61386395,3.95503664,12.61614266,12.616142662580463
7.702525167,-2.966202736,11.76939774,3.919144392,12.75448057,12.754480569537751
7.705031261,-2.978166819,11.90339565,3.880859137,12.86939677,12.869396770768546
7.707537303,-3.009273529,12.02782249,3.818645954,12.97329172,12.973291715878839
7.710043396,-3.037987471,12.16451168,3.742075443,13.08464141,13.084641413042739
7.712549438,-3.061915636,12.29133129,3.684647799,13.19199688,13.191996878607496
7.715055584,-3.088535786,12.40379429,3.617349625,13.28451672,13.284516716822141
7.717561626,-3.124428272,12.51625729,3.567100286,13.3844295,13.384429499486794
7.720067667,-3.153141975,12.65055466,3.533600807,13.50796699,13.507966989276575
7.722573761,-3.205784082,12.8132658,3.502494097,13.66470991,13.66470991061918
7.725079803,-3.229712248,12.97119236,3.488137245,13.81484614,13.814846140473652
7.727585896,-3.270390272,13.16501141,3.507279873,14.01120944,14.011209443305503
7.730091938,-3.32063961,13.38305664,3.509672642,14.22851554,14.22851554108693
7.732598032,-3.392424345,13.59841156,3.540779352,14.45553383,14.455533830033392
7.735104074,-3.459423304,13.86192036,3.557528973,14.7233304,14.723330399640403
7.737610167,-3.521636724,14.13709545,3.59102869,15.00516178,15.005161779555705
7.740116209,-3.607778311,14.42931843,3.626920938,15.30933866,15.309338659333475
7.742622303,-3.720540047,14.72363567,3.670290947,15.62366479,15.623664781985605
7.745128344,-3.823431492,15.04218006,3.725325823,15.96132394,15.96132393691042
7.747634438,-3.911965847,15.31017685,3.766003847,16.24462302,16.244623016308783
7.75014048,-4.043570995,15.56411457,3.746861219,16.51154438,16.511544377620698
7.752646574,-4.167997837,15.75554085,3.725325823,16.71787444,16.71787444422185
7.755152615,-4.29750967,15.92303848,3.663112402,16.89467775,16.89467774978234
7.757658761,-4.395615101,16.05972862,3.600599766,17.03527617,17.035276168559925
7.760164803,-4.515256405,16.12672806,3.528815269,17.11465558,17.11465557721839
7.762670844,-4.608576298,16.1195488,3.445066452,17.11570366,17.115703662682545
7.765176938,-4.697110653,16.09562111,3.342175007,17.09684185,17.09684184814901
7.76768298,-4.766502857,16.0070858,3.196212769,17.00476761,17.004767606735157
7.770189074,-4.788337231,15.87039661,3.069094181,16.85873664,16.858736639746418
7.772695115,-4.795515537,15.70768452,2.932703257,16.68319725,16.68319725469535
7.775201209,-4.783551693,15.50190163,2.793919563,16.46199585,16.46199585318603
7.777707251,-4.721039295,15.26710606,2.679064035,16.20339852,16.203398519318508
7.780213344,-4.642076015,15.0158596,2.537887573,15.92060874,15.920608738020613
7.782719386,-4.532006264,14.74517155,2.42273283,15.61501838,15.615018385561525
7.78522548,-4.39800787,14.46760368,2.315055847,15.29750023,15.297500221959808
7.787731521,-4.244867325,14.18495178,2.216950178,14.9715271,14.971527099782174
7.790237615,-4.1129632,13.89063454,2.114058733,14.6401994,14.64019940215873
7.792743657,-3.962215185,13.60080433,2.032702923,14.31128606,14.311286062697652
7.795249751,-3.823431492,13.328022,1.960619092,14.00352906,14.00352905629207
7.797755792,-3.677469254,13.06211948,1.898405671,13.70206881,13.702068804220614
7.800261886,-3.552743435,12.82283783,1.862513304,13.43562845,13.435628445926588
7.802767928,-3.421138287,12.58804131,1.867298961,13.17762408,13.17762408823364
7.805274074,-3.287140131,12.34636688,1.862513304,12.91150732,12.911507316497506
7.807780115,-3.184248686,12.11904812,1.893620014,12.67266995,12.67266995493016
7.810286157,-3.081058264,11.89143085,1.934298038,12.43545563,12.435455624395315
7.812792251,-2.985345364,11.69521999,2.018345833,12.23781752,12.237817512058282
7.815298292,-2.896811008,11.48435211,2.111665964,12.03083499,12.030834989561093
7.817804386,-2.803490877,11.29771233,2.214557409,11.84914045,11.849140454337313
7.820310428,-2.717349291,11.13500023,2.322234392,11.69465647,11.694656466215067
7.822816521,-2.664707184,10.99621677,2.429911375,11.57246374,11.572463735939934
7.825322563,-2.600100994,10.88106155,2.530709028,11.47007035,11.470070349317345
7.827828657,-2.552244425,10.78056335,2.643171787,11.38950635,11.389506347682483
7.830334699,-2.50169611,10.692029,2.753241539,11.32070256,11.320702563697415
7.832840792,-2.449054003,10.65135098,2.853740215,11.2957061,11.295706105572398
7.835346834,-2.446661234,10.6298151,2.951845884,11.30011126,11.300111255073295
7.837852928,-2.432304144,10.62502956,3.023630619,11.31148526,11.311485257027377
7.840358969,-2.449054003,10.6417799,3.083451033,11.34693858,11.346938583713365
7.842865115,-2.472982168,10.67767239,3.107678413,11.39236558,11.392365583584496
7.845371157,-2.523231506,10.70638561,3.150749207,11.44205448,11.442054475849048
7.847877199,-2.597707987,10.73988533,3.177070379,11.49726054,11.497260538075668
7.850383292,-2.65513587,10.77338505,3.198605776,11.54758203,11.547582034087686
7.852889334,-2.75084877,10.79491997,3.22492671,11.59731082,11.597310826178056
7.855395428,-2.84656167,10.81406307,3.215355396,11.6355225,11.635522495601018
7.857901469,-2.94227457,10.82841969,3.165106058,11.65888283,11.658882836122709
7.860407563,-3.040380239,10.84516907,3.073879719,11.67520195,11.675201954632985
7.862913605,-3.126821041,10.85234833,2.968595505,11.67745834,11.677458343766434
7.865419699,-3.234498024,10.84995556,2.865704298,11.67886014,11.67886014321648
7.86792574,-3.361317635,10.86431217,2.748456001,11.69981819,11.699818184912319
7.870431834,-3.478565931,10.88824081,2.647957325,11.73311071,11.733110707220165
7.872937876,-3.569493294,10.91456127,2.542673111,11.76155248,11.761552475838274
7.875443969,-3.687040567,10.94088268,2.456232548,11.80382397,11.803823968955239
7.877950011,-3.773182154,10.9746809,2.382055044,11.84713935,11.847139344868646
7.880456157,-3.900001764,11.01057339,2.303091764,11.90575372,11.905753727050792
7.882962199,-4.014857292,11.01775169,2.248056889,11.94000382,11.940003817160353
7.88546824,-4.136891365,11.04646587,2.195414782,11.99825506,11.998255058462066
7.887974334,-4.278367043,11.06800079,2.092523336,12.04922072,12.04922071977162
7.890480376,-4.431507587,11.07518005,2.032702923,12.10081625,12.100816245474077
7.892986469,-4.567898273,11.0871439,1.982453585,12.15403541,12.154035408392676
7.895492511,-4.706682205,11.04646587,1.912762642,12.15877982,12.15877981215917
7.897998605,-4.879264355,11.02732277,1.706979871,12.17878682,12.178786819701427
7.900504646,-5.120939732,10.99621677,1.448554993,12.21634637,12.216346367034241
7.90301074,-5.334199905,10.91456127,1.340578914,12.22204926,12.22204926220425
7.905516782,-5.470590591,10.88345432,1.354935765,12.25613276,12.256132761892738
7.908022876,-5.499304771,10.89063358,1.371685624,12.27720547,12.277205471492902
7.910528917,-5.451447964,10.86431217,1.357328653,12.23085872,12.230858714892614
7.913035011,-5.36052084,10.8427763,1.278365493,12.1628615,12.162861501374138
7.915541053,-5.199902534,10.81884861,1.141974568,12.05780152,12.057801521137979
7.918047146,-5.058726311,10.77817059,0.9409775138,11.9434129,11.943412905791286
7.920553188,-4.91754961,10.71834946,0.7205387354,11.81458782,11.814587821109345
7.923059282,-4.742574692,10.62742233,0.5147559643,11.6489954,11.648995398409424
7.925565324,-4.572684288,10.55563831,0.3592225015,11.50912606,11.509126054346856
7.928071469,-4.364508629,10.48146057,0.2632105052,11.35690235,11.356902351571392
7.930577511,-4.151247978,10.4096756,0.1986042857,11.20864173,11.208641734589559
7.933083553,-3.959822416,10.33519936,0.1555334777,11.06890826,11.068908258716663
7.935589646,-3.739682674,10.2347002,0.1004985496,10.89699109,10.89699108215509
7.938095688,-3.557528973,10.10548782,0.01914258115,10.71341509,10.713415091011637
7.940601782,-3.378067255,9.959526062,-0.04067798331,10.51689842,10.516898423836118
7.943107824,-3.208176851,9.798908234,-0.1028913707,10.311236,10.311236003496855
7.945613917,-3.066701412,9.609874725,-0.1268195957,10.08813328,10.088133275805298
7.948119959,-2.956631422,9.406484604,-0.1866401732,9.861970215,9.861970215180072
7.950626053,-2.858525753,9.226723671,-0.1914258152,9.661275435,9.66127543465566
7.953132094,-2.760420084,9.037691116,-0.1507478207,9.451058388,9.451058388023094
7.955638188,-2.669492722,8.87258625,-0.08135596663,9.265829534,9.26582953381975
7.95814423,-2.585743904,8.702695847,-0.04785645381,9.078836752,9.07883675272529
7.960650324,-2.506481647,8.532505989,0.01674975827,8.893052865,8.893052864650633
7.963156365,-2.432304144,8.379365921,0.06699903309,8.725500877,8.725500877162911
7.965662511,-2.362912416,8.214261055,0.1100698411,8.548073183,8.54807318261235
7.968168553,-2.291127682,8.070392609,0.1794617027,8.391228123,8.391228123544522
7.970674594,-2.207378864,7.931608677,0.2273181528,8.236176977,8.23617697702569
7.973180688,-2.140379906,7.821538925,0.2898306549,8.114289809,8.114289809084864
7.97568673,-2.073380709,7.730611801,0.3831507266,8.012993876,8.012993876292924
7.978192824,-1.994417667,7.642077446,0.4812564552,7.912689637,7.912689637334152
7.980698865,-1.939083695,7.574779034,0.5865406394,7.841004585,7.841004585626039
7.983204959,-1.845763564,7.505387306,0.6990033388,7.760559736,7.760559735928168
7.985711001,-1.759621978,7.452745438,0.8401798606,7.703608652,7.703608652264747
7.988217094,-1.642373681,7.40488863,0.9577272534,7.645064318,7.645064317757561
7.990723136,-1.541875124,7.376174927,1.039083242,7.606906693,7.606906692967826
7.99322923,-1.45334065,7.347461224,1.127617717,7.574226508,7.574226508285733
7.995735271,-1.383649707,7.313961506,1.173081279,7.535558314,7.535558314423109
7.998241417,-1.321436286,7.287640572,1.20179522,7.503346634,7.503346634364749
8.000747459,-1.271187067,7.246962547,1.213759303,7.457049978,7.457049977205989
8.003253501,-1.216152072,7.21346283,1.213759303,7.415273663,7.415273663705241
8.005759594,-1.18743825,7.189534664,1.21854496,7.388116817,7.388116817021917
8.008265636,-1.163509965,7.16321373,1.2352947,7.361476711,7.361476711649837
8.01077173,-1.1395818,7.117750168,1.252044439,7.316326223,7.316326223603352
8.013277771,-1.15393877,7.086643219,1.278365493,7.292894153,7.292894153352353
8.015783865,-1.165902853,7.041179657,1.285543919,7.251907583,7.251907583006147
8.018289907,-1.199402332,6.997809887,1.299900889,7.217870288,7.217870287683548
8.020796001,-1.275972724,6.981060028,1.26640141,7.208819462,7.208819462171412
8.023302042,-1.328614831,6.954739094,1.2352947,7.187458955,7.187458955055895
8.025808136,-1.371685624,6.945167542,1.182652593,7.177432743,7.177432743904203
8.028314178,-1.45334065,6.940382004,1.098903775,7.175562062,7.175562062521564
8.030820271,-1.527518153,6.923632145,1.022333503,7.163460028,7.163460028392571
8.033326313,-1.594517231,6.921239376,0.9361918569,7.163972005,7.163972005303667
8.035832459,-1.654337764,6.926024914,0.8476574421,7.171135034,7.17113503469937
8.038338501,-1.699801445,6.923632145,0.789930582,7.172865352,7.172865351871611
8.040844542,-1.738086581,6.945167542,0.766002357,7.200212271,7.200212271900887
8.043350636,-1.797907114,6.957131863,0.7301099896,7.222687474,7.222687473970847
8.04585673,-1.838585138,7.004988194,0.7013961077,7.27613987,7.276139869989483
8.048362771,-1.867298961,7.026822567,0.6678966284,7.301309931,7.301309930696014
8.050868813,-1.896012783,7.036394119,0.6296114326,7.314514149,7.3145141484077945
8.053374907,-1.924726725,7.036394119,0.5745765567,7.317482722,7.317482721765473
8.055880949,-1.939083695,7.026822567,0.5243272781,7.308296659,7.3082966592000815
8.058387042,-1.951047778,7.026822567,0.4501497746,7.306535269,7.30653526917592
8.060893084,-1.960619092,7.024429798,0.3951148391,7.303612596,7.3036125956284295
8.063399178,-1.946262121,6.973881721,0.3376871049,7.248240827,7.248240826776735
8.065905219,-1.946262121,6.954739094,0.2751746178,7.227174633,7.227174633252799
8.068411365,-1.934298038,6.930810928,0.2297109663,7.199334424,7.1993344239265165
8.070917407,-1.929512382,6.899703979,0.1842473447,7.166790085,7.166790084420552
8.073423449,-1.939083695,6.86381197,0.1507478207,7.13405111,7.134051110075953
8.075929542,-1.929512382,6.847062111,0.1268195957,7.114868993,7.114868993455649
8.078435584,-1.927119493,6.837490559,0.1100698411,7.104729555,7.104729555347936
8.080941678,-1.896012783,6.827919483,0.06939185411,7.08661867,7.086618669651077
8.083447719,-1.893620014,6.801598549,0.04307080805,7.060410376,7.060410375727911
8.085953813,-1.893620014,6.780063152,0.04067798331,7.039652534,7.039652534099656
8.088459855,-1.891227245,6.78484869,0.01196411345,7.04351158,7.043511580059739
8.090965949,-1.910369754,6.772884369,0.009571290575,7.037156164,7.037156164420812
8.09347199,-1.90079844,6.753741741,0.009571290575,7.016135249,7.016135248356849
8.095978084,-1.896012783,6.760920525,0.01196411345,7.02175576,7.021755760397561
8.098484126,-1.898405671,6.758527756,0.03110669367,7.020157345,7.020157344867595
8.100990271,-1.910369754,6.768098831,0.04067798331,7.032661593,7.032661592989368
8.103496313,-1.90079844,6.765706062,0.04546362907,7.027793407,7.027793406785532
8.106002355,-1.907976985,6.722635269,0.04546362907,6.988295077,6.988295076544823
8.108508449,-1.912762642,6.708278179,0.04307080805,6.975780397,6.975780396915061
8.11101449,-1.910369754,6.693921566,0.05264209956,6.961384181,6.961384181282053
8.113520584,-1.912762642,6.684350014,0.04785645381,6.952804202,6.952804202224013
8.116026626,-1.929512382,6.669992924,0.05024927482,6.943655278,6.9436552786066015
8.118532719,-1.929512382,6.653243542,0.05742774159,6.927623373,6.927623373636889
8.121038761,-1.941476464,6.617351055,0.06460621208,6.896581748,6.896581748084691
8.123544855,-1.958226204,6.588637352,0.08614161611,6.874024469,6.874024468986699
8.126050896,-1.951047778,6.567101955,0.1100698411,6.851680881,6.851680880581299
8.12855699,-1.946262121,6.557530403,0.1435693651,6.841765371,6.841765371050369
8.131063032,-1.936690807,6.538387775,0.1794617027,6.821546195,6.821546194296697
8.133569178,-1.943869352,6.524031162,0.2321037948,6.811422967,6.811422966748764
8.136075219,-1.955833435,6.524031162,0.2608176768,6.815885334,6.815885334183837
8.138581261,-1.963011861,6.550352097,0.3065803945,6.845036135,6.84503613572571
8.141087355,-1.972882271,6.583851337,0.3257229924,6.880803613,6.880803612276753
8.143593449,-1.97527504,6.634100914,0.3424727321,6.930389166,6.930389166058041
8.14609949,-1.992024899,6.684350014,0.3687937856,6.984605011,6.984605011322755
8.148605532,-2.030309916,6.753741741,0.385543555,7.062848554,7.0628485536598955
8.151111626,-2.063809633,6.815955162,0.3975076675,7.132640978,7.1326409777430495
8.153617667,-2.097309113,6.890132904,0.4118646085,7.214032811,7.214032811541071
8.156123761,-2.13559413,6.952346325,0.4022932947,7.284073146,7.284073146653048
8.158629803,-2.164308071,7.026822567,0.3879363835,7.362809209,7.362809209258329
8.161135896,-2.21216464,7.096214771,0.3951148391,7.44352418,7.443524179224645
8.163641938,-2.264806747,7.172784805,0.399900496,7.532470503,7.532470502218821
8.166148032,-2.305484533,7.237390995,0.4070789516,7.606628729,7.606628728894626
8.168654074,-2.360519648,7.313961506,0.4357928336,7.697791976,7.697791976512547
8.171160219,-2.40598321,7.392924786,0.4573282301,7.788019081,7.788019081146466
8.173666261,-2.444268227,7.48385191,0.4980062246,7.888630855,7.888630855609402
8.176172303,-2.477767944,7.560422421,0.5291129351,7.973661747,7.973661747676761
8.178678396,-2.533101797,7.651648521,0.5578267574,8.079325498,8.079325497475486
8.18118449,-2.580958366,7.744968891,0.5961119533,8.185428436,8.18542843536307
8.183690532,-2.619243383,7.855038643,0.6391827464,8.304855361,8.304855360914361
8.186196574,-2.659921408,7.960322857,0.6750751138,8.420074126,8.420074126377122
8.188702667,-2.68624258,8.06799984,0.7229315639,8.534116865,8.534116864850633
8.191208709,-2.73649168,8.1759758,0.7540382147,8.654683161,8.65468316150989
8.193714803,-2.796312332,8.288438797,0.7995018363,8.783893416,8.78389341556221
8.196220844,-2.832204819,8.384151459,0.8500502706,8.890329875,8.89032987502521
8.198726938,-2.877668381,8.47986412,0.8979067206,8.99973929,8.999739289755519
8.20123298,-2.915953398,8.58754158,0.9385846853,9.1175433,9.117543299541623
8.203739074,-2.978166819,8.664112091,0.9984052777,9.215917156,9.21591715597228
8.206245115,-3.035594702,8.74576664,1.048654556,9.316809845,9.316809845326185
8.208751261,-3.105285645,8.827122688,1.094118118,9.421145809,9.421145808349602
8.211257303,-3.174677372,8.898907661,1.1395818,9.516710601,9.516710600527084
8.213763344,-3.265604734,8.968298912,1.180259824,9.617045955,9.617045955274005
8.216269438,-3.334996462,9.052047729,1.223330617,9.724109589,9.724109588447478
8.21877548,-3.425923824,9.162117958,1.259222865,9.862403447,9.862403446822468
8.221281574,-3.500101328,9.250652313,1.292722464,9.974788664,9.974788663987315
8.223787615,-3.598206997,9.351449966,1.328614831,10.10751836,10.107518361547227
8.226293709,-3.718147278,9.447162628,1.345364571,10.2412649,10.241264898911691
8.228799751,-3.80907464,9.557232857,1.352542996,10.37685511,10.376855113763524
8.231305844,-3.911965847,9.655338287,1.352542996,10.50516096,10.505160959287162
8.233811886,-4.036392689,9.763015747,1.359721422,10.65165643,10.651656432753938
8.236318032,-4.136891365,9.856635094,1.340578914,10.7733132,10.773313202852007
8.238824074,-4.223331928,9.978668213,1.340578914,10.91821889,10.91821888880518
8.241330115,-4.314259052,10.10788059,1.328614831,11.07010834,11.070108335450737
8.243836209,-4.42672205,10.24187946,1.321436286,11.2355755,11.235575501018342
8.246342251,-4.527220249,10.41206837,1.307079315,11.42870715,11.428707156113983
8.248848344,-4.610969067,10.59870911,1.297508121,11.63087261,11.63087261813527
8.251354386,-4.713860512,10.82124138,1.307079315,11.87552956,11.875529557308933
8.25386048,-4.807479858,11.04885864,1.321436286,12.12168857,12.12168856594393
8.256366521,-4.879264355,11.29053402,1.352542996,12.37387375,12.373873753145359
8.258872615,-4.960620403,11.54207897,1.376471281,12.63811754,12.63811753861286
8.261378657,-5.037190914,11.80050373,1.431805253,12.91027679,12.91027679286337
8.263884751,-5.118546963,11.98953724,1.482054472,13.1204044,13.120404403057039
8.266390792,-5.2238307,12.15733337,1.517946839,13.31890853,13.318908531017403
8.268896886,-5.30279398,12.29851055,1.546660781,13.48203046,13.482030459625472
8.271402928,-5.408377171,12.40857983,1.62801671,13.63355549,13.633555494782572
8.273909074,-5.482554913,12.47557926,1.728515267,13.73631142,13.736311414453834
8.276415115,-5.544768333,12.52343559,1.843370795,13.81951196,13.819511957061913
8.278921157,-5.609374523,12.51865005,1.968096614,13.85839406,13.858394059041789
8.281427251,-5.688337803,12.48993587,2.11645174,13.88650615,13.886506146813911
8.283933292,-5.745765209,12.4301157,2.279163599,13.88222536,13.882225357029323
8.286439386,-5.800800323,12.3679018,2.432304144,13.8755318,13.875531801364577
8.288945428,-5.831906796,12.27218914,2.597707987,13.83350462,13.833504615638386
8.291451521,-5.839085579,12.16451168,2.784348249,13.77762171,13.777621709985057
8.293957563,-5.848656654,12.02782249,2.961417198,13.69836817,13.698368162957895
8.296463657,-5.810371399,11.87707424,3.133999348,13.58849735,13.588497349230828
8.298969699,-5.752943993,11.70957661,3.2895329,13.45479749,13.45479749651537
8.301475844,-5.697908878,11.54447174,3.445066452,13.32702053,13.32702052959872
8.303981886,-5.623731613,11.38146114,3.5766716,13.18926058,13.18926058089051
8.306487928,-5.539982796,11.22832012,3.696611881,13.05494242,13.054942416415445
8.308994021,-5.458626747,11.07278633,3.799503326,12.9166338,12.916633795117972
8.311500063,-5.367699623,10.96271706,3.864109516,12.80330843,12.803308436963123
8.314006157,-5.283651352,10.8547411,3.926322937,12.69481736,12.694817358399959
8.316512199,-5.197509766,10.73749256,3.947858334,12.56556563,12.565565632674637
8.319018292,-5.116153717,10.66810036,3.976572037,12.48184759,12.481847592101714
8.321524334,-5.030012131,10.579566,3.978965044,12.37175823,12.371758226207668
8.324030428,-4.939085007,10.51017475,3.96939373,12.2725067,12.272506694464381
8.326536469,-4.83858633,10.4288187,3.964607954,12.16101531,12.161015310378184
8.329042615,-4.752145767,10.35194874,3.943072557,12.05377755,12.053777552957003
8.331548657,-4.673182487,10.28255749,3.931108475,11.95923229,11.959232288661987
8.334054699,-4.58943367,10.21316528,3.888037682,11.85278379,11.852783785448004
8.336560792,-4.484149456,10.134202,3.840181351,11.72845426,11.728454260008746
8.339066834,-4.386044025,10.05045319,3.77796793,11.59836338,11.598363384276588
8.341572928,-4.28315258,9.973882675,3.703790426,11.46916715,11.469167151888367
8.344078969,-4.158426762,9.9140625,3.634099483,11.34847247,11.348472471710231
8.346585063,-4.041178226,9.844670296,3.555136204,11.21996649,11.219966493721484
8.349091105,-3.909573078,9.815657616,3.500101328,11.1302563,11.130256304013333
8.351597199,-3.775574923,9.782157898,3.46420908,11.04293094,11.042930937506794
8.35410324,-3.670290947,9.763015747,3.421138287,10.97687111,10.976871106584856
8.356609386,-3.516851187,9.758230209,3.409173965,10.91850568,10.918505676464033
8.359115428,-3.390031576,9.760622978,3.418745279,10.88346885,10.88346885361572
8.361621469,-3.265604734,9.77737236,3.421138287,10.86118648,10.861186478630797
8.364127563,-3.141177893,9.794121742,3.418745279,10.83880245,10.83880244931486
8.366633605,-3.030808926,9.80608654,3.433102369,10.82272276,10.822722755939186
8.369139699,-2.94227457,9.823135376,3.437887907,10.81526891,10.815268906577781
8.37164574,-2.851347208,9.837491989,3.435495138,10.80319658,10.803196581448947
8.374151834,-2.801098108,9.868598938,3.423531055,10.81461791,10.81461790791914
8.376657876,-2.746062994,9.897313118,3.418745279,10.82522463,10.825224626096029
8.379163969,-2.698206663,9.93559742,3.41635251,10.84748265,10.847482646271049
8.381670011,-2.659921408,9.933204651,3.401995659,10.8313116,10.8313116010592
8.384176105,-2.635993242,9.940383911,3.392424345,10.82904592,10.829045923186678
8.386682146,-2.607279301,9.933204651,3.375674486,10.81025616,10.810256159199117
8.389188292,-2.612065077,9.921240807,3.356531858,10.79445271,10.794452706401282
8.391694334,-2.585743904,9.916455269,3.351746321,10.78222426,10.7822242621589
8.394200376,-2.592922449,9.923633575,3.366103172,10.7950174,10.795017402577168
8.396706469,-2.552244425,9.918848038,3.375674486,10.78390821,10.783908208127116
8.399212511,-2.525923491,9.894919395,3.370888948,10.75419042,10.754190421211694
8.401718605,-2.50169611,9.873384476,3.363710403,10.72645105,10.726451049296656
8.404224646,-2.451446772,9.866206169,3.339782238,10.70073646,10.700736462618972
8.40673074,-2.410768747,9.861420631,3.318246841,10.68036446,10.680364455899005
8.409236782,-2.355733871,9.851848602,3.2895329,10.65032533,10.650325330612601
8.411742876,-2.322234392,9.842277527,3.263211966,10.62599416,10.62599415701526
8.414248917,-2.255235434,9.83509922,3.215355396,10.59026788,10.590267883892272
8.416755011,-2.195414782,9.815657616,3.174677372,10.54730093,10.547300930373217
8.419261053,-2.128415823,9.796515465,3.126821041,10.5013751,10.501375100148612
8.421767199,-2.063809633,9.803693771,3.081058264,10.48163355,10.481633545539097
8.42427324,-2.011167526,9.818050385,3.033201694,10.47087488,10.470874877321382
8.426779282,-1.968096614,9.818050385,3.002095222,10.45371194,10.453711942003766
8.429285376,-1.903191328,9.808479309,2.968595505,10.42309757,10.423097565424673
8.431791417,-1.864906192,9.815657616,2.932703257,10.41276898,10.412768984910647
8.434297511,-1.812264085,9.798908234,2.899203777,10.37826027,10.378260270040686
8.436803553,-1.797907114,9.772586823,2.865704298,10.34157552,10.341575524416998
8.439309646,-1.738086581,9.729516029,2.839383125,10.28331287,10.283312873396149
8.441815688,-1.685444474,9.660123825,2.829811811,10.20620156,10.206201559588408
8.444321782,-1.656730533,9.605089188,2.822633505,10.14740136,10.147401355616005
8.446827824,-1.635195136,9.535696983,2.827419043,10.07956738,10.07956737807295
8.449333917,-1.606481314,9.444769859,2.839383125,9.992324877,9.992324876235802
8.451839959,-1.606481314,9.368199348,2.848954439,9.922725565,9.92272556466199
8.454346105,-1.575374603,9.26530838,2.856132984,9.822690067,9.822690066298966
8.456852146,-1.561017632,9.150154114,2.877668381,9.718182529,9.718182529072664
8.459358188,-1.539482236,9.032905579,2.899203777,9.610867354,9.610867353920765
8.461864282,-1.527518153,8.898907661,2.896811008,9.48237224,9.482372239203595
8.464370324,-1.53230381,8.784051895,2.906382322,9.378410359,9.378410359001556
8.466876417,-1.541875124,8.647361755,2.91116786,9.253601598,9.253601597699335
8.469382459,-1.54905355,8.5085783,2.915953398,9.126787815,9.126787814302807
8.471888553,-1.541875124,8.372187614,2.927917719,9.002422258,9.002422257995855
8.474394594,-1.551446438,8.233403206,2.923131943,8.87359086,8.87359086045446
8.47690074,-1.553839207,8.099106789,2.923131943,8.749551269,8.749551269466522
8.479406782,-1.58016026,7.948358536,2.925524712,8.615799713,8.615799713584922
8.481912824,-1.604088426,7.814360619,2.927917719,8.497648717,8.497648717818322
8.484418917,-1.59691,7.680362701,2.918346405,8.369876852,8.369876851339477
8.486924959,-1.618445396,7.538887024,2.896811008,8.236849949,8.236849948647793
8.489431053,-1.637588024,7.40488863,2.870489836,8.108870578,8.108870578424026
8.491937094,-1.649552107,7.273283482,2.877668381,7.993913314,7.993913314156549
8.494443188,-1.678265929,7.146463871,2.84656167,7.873464024,7.873464023481896
8.49694923,-1.668694735,7.022037029,2.813062191,7.746409817,7.746409816534211
8.499455324,-1.668694735,6.923632145,2.777169704,7.64420668,7.644206679748361
8.501961365,-1.683051586,6.818347931,2.741277456,7.539040605,7.539040604750907
8.504467511,-1.690230131,6.708278179,2.691028118,7.422904173,7.422904172522669
8.506973553,-1.6926229,6.634100914,2.645564556,7.339978136,7.339978136118903
8.509479594,-1.716551185,6.550352097,2.612065077,7.257860878,7.257860878515117
8.511985688,-1.718943954,6.485745907,2.55942297,7.1812474,7.18124740045377
8.51449173,-1.72372961,6.428019047,2.513660192,7.114011541,7.114011540462316
8.516997824,-1.752443433,6.384948254,2.456232548,7.061989841,7.061989841537374
8.519503865,-1.778764486,6.375376701,2.398804665,7.040148791,7.040148790837752
8.522009959,-1.824228168,6.32752037,2.336591244,6.987487466,6.987487465693734
8.524516001,-1.857727647,6.325127602,2.264806747,6.970490714,6.9704907139502845
8.527022094,-1.903191328,6.315556049,2.173879385,6.945080059,6.945080058542368
8.529528136,-1.968096614,6.289235115,2.090130568,6.913503338,6.9135033380389235
8.53203423,-2.001596212,6.272485256,1.999203324,6.880935446,6.880935446094723
8.534540271,-2.063809633,6.238986015,1.912762642,6.844188602,6.8441886021105525
8.537046417,-2.11645174,6.21505785,1.85294199,6.822001617,6.822001617186909
8.539552459,-2.176272154,6.179165363,1.781157374,6.789018093,6.789018092664748
8.542058501,-2.243271112,6.152844429,1.730908036,6.773905999,6.773905998646529
8.544564594,-2.312663078,6.116951942,1.687837243,6.753836402,6.753836401034589
8.547070636,-2.370090723,6.061916828,1.659123421,6.716908232,6.716908231541576
8.54957673,-2.425125837,6.018846035,1.64476645,6.694251235,6.694251234706222
8.552082771,-2.480160713,5.975775242,1.632802367,6.672865237,6.6728652372792325
8.554588865,-2.528316259,5.939883232,1.613659739,6.654208719,6.6542087184418905
8.557094907,-2.568994284,5.899205208,1.611266971,6.632988389,6.6329883890411345
8.559601001,-2.616850615,5.853442192,1.62801671,6.615219652,6.615219652010874
8.562107042,-2.679064035,5.817550182,1.642373681,6.612009191,6.612009190235613
8.564613188,-2.722134829,5.781657696,1.651944876,6.600492831,6.600492831169014
8.56711923,-2.765205622,5.755336761,1.635195136,6.591215859,6.591215858796952
8.569625271,-2.798705101,5.721837044,1.639980793,6.57736318,6.577363180018493
8.572131365,-2.834597588,5.702694416,1.651944876,6.579102443,6.579102443458048
8.574637407,-2.882453918,5.688337803,1.668694735,6.591681854,6.591681854356226
8.577143501,-2.923131943,5.685945034,1.702194214,6.616051423,6.616051422716672
8.579649542,-2.968595505,5.693123341,1.742872238,6.652955455,6.652955454994144
8.582155636,-3.011666298,5.666802406,1.807478428,6.667065447,6.66706544641957
8.584661678,-3.064308405,5.676373482,1.881655931,6.719511214,6.719511213680198
8.587167771,-3.0981071,5.683551788,1.919941068,6.751829547,6.751829547207289
8.589673813,-3.131606579,5.693123341,1.965703845,6.788416954,6.788416954469052
8.592179959,-3.165106058,5.712265968,2.00638175,6.831796731,6.831796731043184
8.594686001,-3.196212769,5.75772953,2.051845312,6.897629636,6.897629635587072
8.597192042,-3.227319479,5.810371399,2.063809633,6.959548622,6.959548621506545
8.599698136,-3.267997503,5.88694191,2.051845312,7.038889253,7.038889252979128
8.602204178,-3.291925669,5.956633091,2.061416626,7.111096322,7.111096321733136
8.604710271,-3.299104214,5.99491787,2.054238319,7.144440072,7.144440072820672
8.607216313,-3.342175007,6.088238239,2.044667006,7.239989074,7.239989074415946
8.609722407,-3.387638569,6.155237198,2.037488461,7.315353666,7.315353666537757
8.612228449,-3.421138287,6.246164322,2.030309916,7.405465162,7.405465162379129
8.614734594,-3.457030535,6.34187746,2.011167526,7.497683953,7.4976839527427
8.617240636,-3.507279873,6.428019047,1.980060697,7.585583783,7.585583783727513
8.619746678,-3.540779352,6.507281303,1.955833435,7.662056696,7.662056695260537
8.622252771,-3.586242914,6.583851337,1.939083695,7.74391905,7.7439190493022805
8.624758813,-3.631706476,6.662814617,1.907976985,7.824497858,7.824497857602039
8.627264907,-3.672683716,6.734599113,1.888834357,7.900071273,7.900071273018716
8.629770949,-3.725325823,6.811169624,1.857727647,7.982558246,7.982558245627718
8.632277042,-3.77796793,6.894918442,1.829013824,8.072065013,8.072065012766144
8.634783084,-3.835395575,6.957131863,1.821835399,8.150523124,8.150523124128226
8.637289178,-3.868895054,7.031608582,1.790728688,8.223051588,8.223051588269888
8.639795219,-3.907180309,7.103393078,1.783550143,8.300921774,8.300921774129122
8.642301365,-3.943072557,7.187141895,1.781157374,8.389001812,8.389001811871617
8.644807407,-3.978965044,7.244569778,1.764407635,8.451573132,8.451573131206473
8.647313449,-4.012464523,7.328318596,1.771586061,8.540646472,8.540646472272607
8.649819542,-4.050749779,7.400103092,1.766800404,8.619262336,8.61926233571476
8.652325584,-4.074677944,7.493422985,1.771586061,8.711653434,8.711653433819315
8.654831678,-4.103391647,7.587042332,1.778764486,8.807101535,8.807101535288679
8.657337719,-4.141676903,7.701898098,1.793121457,8.926813902,8.926813901968243
8.659843813,-4.17517662,7.800003529,1.802692771,9.028945458,9.028945458204005
8.662349855,-4.206283092,7.922037601,1.824228168,9.153103606,9.153103605369468
8.664855949,-4.225724697,8.036892891,1.857727647,9.268200935,9.268200934737564
8.66736199,-4.261617184,8.15444088,1.896012783,9.394208405,9.394208405271764
8.669868136,-4.280759811,8.278866768,1.946262121,9.521159371,9.521159370864819
8.672374178,-4.309473515,8.415258408,2.008774519,9.665573501,9.665573501768263
8.674880219,-4.335794449,8.542078018,2.054238319,9.797249892,9.79724989172094
8.677386313,-4.338187218,8.656932831,2.11645174,9.911696239,9.911696239625854
8.679892355,-4.366901398,8.779266357,2.176272154,10.0439786,10.043978597910401
8.682398449,-4.383651257,8.891729355,2.207378864,10.15636602,10.156366019142887
8.68490449,-4.39800787,8.987442017,2.260020971,10.25788877,10.257888770252812
8.687410584,-4.39800787,9.068798065,2.310270309,10.34035398,10.340353981802394
8.689916626,-4.390829563,9.181260109,2.348555326,10.44464617,10.444646167281705
8.692422719,-4.376472473,9.305986404,2.410768747,10.56251392,10.562513915251024
8.694928761,-4.386044025,9.411270142,2.494517565,10.67857695,10.678576953743997
8.697434907,-4.369294167,9.509376526,2.554637194,10.7724252,10.772425196954874
8.699940949,-4.314259052,9.593125343,2.616850615,10.8392247,10.839224702694317
8.70244699,-4.292723656,9.686445236,2.700599432,10.93379783,10.933797830073859
8.704953084,-4.242474556,9.796515465,2.772384167,11.0297969,11.029796896757613
8.707459126,-4.194318771,9.921240807,2.860918522,11.14487254,11.144872538201934
8.709965219,-4.14646244,10.0337038,2.918346405,11.24211317,11.242113166662289
8.712471261,-4.117748737,10.15573788,2.980559587,11.35687466,11.356874658108612
8.714977355,-4.1129632,10.27537823,3.030808926,11.47543754,11.475437542857938
8.717483396,-4.115355968,10.40010452,3.069094181,11.5981752,11.59817519535404
8.719989542,-4.103391647,10.54128075,3.105285645,11.73026946,11.730269468176466
8.722495584,-4.055535316,10.67049313,3.117249727,11.83317523,11.833175237322482
8.725001626,-4.04835701,10.80688477,3.133999348,11.95825676,11.95825676366495
8.727507719,-4.03399992,10.90738297,3.131606579,12.04371696,12.043716966719291
8.730013761,-4.031607151,10.99860954,3.114856958,12.12128714,12.121287138838614
8.732519855,-4.024428368,11.07996559,3.105285645,12.1903429,12.190342903371926
8.735025896,-4.014857292,11.18046379,3.0981071,12.27681218,12.276812177340547
8.73753199,-4.007678986,11.2378912,3.076272726,12.3213288,12.32132879857505
8.740038032,-3.976572037,11.31206894,3.049951553,12.37247887,12.37247886821433
8.742544178,-3.952643871,11.39581776,3.033201694,12.43737788,12.437377879061556
8.745050219,-3.907180309,11.49392319,3.037987471,12.51421975,12.514219757484287
8.747556261,-3.876073599,11.56840038,3.047558784,12.57535083,12.575350827662206
8.750062355,-3.833002806,11.65454197,3.090928555,12.6520393,12.652039297022823
8.752568396,-3.761218071,11.76700401,3.110071182,12.73898299,12.738982985547942
8.75507449,-3.701397419,11.8651104,3.155534744,12.82336099,12.823360993833058
8.757580532,-3.66789794,11.9727869,3.177070379,12.91878004,12.918780036992155
8.760086626,-3.605385542,12.08794212,3.205784082,13.01515276,13.01515275297748
8.762592667,-3.540779352,12.2051897,3.227319479,13.11180251,13.111802509650168
8.765098813,-3.490530014,12.34397411,3.251247883,13.23359775,13.233597749807007
8.767604855,-3.468994617,12.50907898,3.256033421,13.38330057,13.383300572703348
8.770110896,-3.425923824,12.67448235,3.270390272,13.5305177,13.530517707002366
8.77261699,-3.409173965,12.87787247,3.294318676,13.72277676,13.7227767604177
8.775123032,-3.421138287,13.12194061,3.337389469,13.96523115,13.965231148066849
8.777629126,-3.442673683,13.37348557,3.411566973,14.22465843,14.224658434910955
8.780135167,-3.485744476,13.68215942,3.509672642,14.54887292,14.548872911681595
8.782641261,-3.540779352,14.01266861,3.579064369,14.88965083,14.889650827023253
8.785147303,-3.617349625,14.33599854,3.653541088,15.23005039,15.230050391580258
8.787653396,-3.684647799,14.66620827,3.734897137,15.5763844,15.576384402218082
8.790159438,-3.77796793,14.99910927,3.80907464,15.92970088,15.929700881893531
8.792665584,-3.885644913,15.30060482,3.864109516,16.25232558,16.252325575109914
8.795171626,-3.990929127,15.56411457,3.880859137,16.52967771,16.529677712709937
8.797677667,-4.08424902,15.78904057,3.880859137,16.76412717,16.7641271714251
8.800183761,-4.182354927,15.99751472,3.821038723,16.97094302,16.970943016658897
8.802689803,-4.292723656,16.16501236,3.732504129,17.13670587,17.136705869528623
8.805195896,-4.374079704,16.26072502,3.607778311,17.22091217,17.220912164409896
8.807701938,-4.443471432,16.33729553,3.454637766,17.27964658,17.279646573232668
8.810208032,-4.510470867,16.38036728,3.299104214,17.30736457,17.307364567853273
8.812714074,-4.546362877,16.39472389,3.114856958,17.29620539,17.296205384635716
8.815220219,-4.546362877,16.37318802,2.94227457,17.24551191,17.245511908693924
8.817726261,-4.534399033,16.32533073,2.762812853,17.16712943,17.167129430835423
8.820232303,-4.467400074,16.21765518,2.602493763,17.02183823,17.021838230491145
8.822738396,-4.400400639,16.08844185,2.413161755,16.85303642,16.85303642078595
8.825244438,-4.292723656,15.94218063,2.23130703,16.66011197,16.66011196506364
8.827750532,-4.177569389,15.77229023,2.063809633,16.44617084,16.446170840062646
8.830256574,-4.012464523,15.58086491,1.903191328,16.20139994,16.201399943306672
8.832762719,-3.87368083,15.3987112,1.759621978,15.97566836,15.975668352190326
8.835268761,-3.720540047,15.23360634,1.666301847,15.76964623,15.76964622966332
8.837774803,-3.567100286,15.08285809,1.599302888,15.58122531,15.581225315777475
8.840280896,-3.406781197,14.96321774,1.553839207,15.42460565,15.424605652660746
8.842786938,-3.256033421,14.83849144,1.53230381,15.2686128,15.268612799457676
8.845293032,-3.112463951,14.71885014,1.520339727,15.12095943,15.12095943303688
8.847799074,-2.97577405,14.60399437,1.498804331,14.97926224,14.979262237449129
8.850305167,-2.834597588,14.48196125,1.479661703,14.83076343,14.830763429025556
8.852811209,-2.707777977,14.33599854,1.45334065,14.66168867,14.661688673428815
8.855317303,-2.602493763,14.17298794,1.424626827,14.4801976,14.480197599827408
8.857823344,-2.489732027,13.97916889,1.398006678,14.26780821,14.267808209152028
8.860329438,-2.377269268,13.74945831,1.386042476,14.0221299,14.022129893004184
8.86283548,-2.291127682,13.53619766,1.424626827,13.80244452,13.802444520519698
8.865341626,-2.188236237,13.29930782,1.45334065,13.55625927,13.556259268875595
8.867847667,-2.099701881,13.04297733,1.51555407,13.29755278,13.297552773313681
8.870353709,-1.996810555,12.79412365,1.604088426,13.04798651,13.047986512963442
8.872859803,-1.924726725,12.55693531,1.735693693,12.82161573,12.821615730529986
8.875365844,-1.843370795,12.32722378,1.85294199,12.60126406,12.60126406470246
8.877871938,-1.769193292,12.0975132,1.992024899,12.38741433,12.387414327730706
8.88037798,-1.70937264,11.88664532,2.118844509,12.1944165,12.194416502612082
8.882884074,-1.642373681,11.66889858,2.224128723,11.99196956,11.991969561120523
8.885390115,-1.568196177,11.49153042,2.319841623,11.82777138,11.827771379222124
8.887896261,-1.517946839,11.31685448,2.425125837,11.67289995,11.672899950432674
8.890402303,-1.51555407,11.1445713,2.528316259,11.52782533,11.527825324205821
8.892908344,-1.494018674,11.00339508,2.62402916,11.4101851,11.41018510443013
8.895414438,-1.491625786,10.86909771,2.695813894,11.29732911,11.297329112054353
8.89792048,-1.503589988,10.75424194,2.729313374,11.19659118,11.196591179888818
8.900426574,-1.53230381,10.63938713,2.774776936,11.10152695,11.101526945096683
8.902932615,-1.577767372,10.55563831,2.808276415,11.03617989,11.036179884123523
8.905438709,-1.654337764,10.46231747,2.858525753,10.9712392,10.97123920808529
8.907944751,-1.718943954,10.38335514,2.875275612,10.91036398,10.910363977673684
8.910450896,-1.776371717,10.28734303,2.868097067,10.82639847,10.826398472233558
8.912956938,-1.876870275,10.20837975,2.875275612,10.77036995,10.770369956243407
8.91546298,-1.972882271,10.13180923,2.908775091,10.72412213,10.72412212063819
8.917969074,-2.078166485,10.07438183,2.896811008,10.68660185,10.686601855224204
8.920475115,-2.171486616,9.99302578,2.81545496,10.60672923,10.606729231718907
8.922981209,-2.269592285,9.923633575,2.700599432,10.53198888,10.531988879747145
8.925487251,-2.362912416,9.88534832,2.525923491,10.47300129,10.473001287873473
8.927993344,-2.451446772,9.83509922,2.427518606,10.42264911,10.42264911266181
8.930499386,-2.588136673,9.763015747,2.520838737,10.41006993,10.41006992542592
8.93300548,-2.73649168,9.667302132,2.573779821,10.37156978,10.371569784418739
8.935511521,-2.868097067,9.593125343,2.480160713,10.31529116,10.31529116382817
8.938017667,-2.97577405,9.504590988,2.250449657,10.21063194,10.210631944425165
8.940523709,-3.081058264,9.44237709,1.965703845,10.12498873,10.12498872800199
8.943029751,-3.165106058,9.435198784,1.654337764,10.08849374,10.088493737391124
8.945535844,-3.220141172,9.478269577,1.398006678,10.10748861,10.107488610610744
8.948041886,-3.222533941,9.523733139,1.252044439,10.1318228,10.131822796566007
8.95054798,-3.253640652,9.557232857,1.213759303,10.16858343,10.168583432360991
8.953054021,-3.282354355,9.573982239,1.242473125,10.19699591,10.196995905207679
8.955560167,-3.306282759,9.52134037,1.285543919,10.16071116,10.160711160717554
8.958066209,-3.313461065,9.461520195,1.316650629,10.11103148,10.11103147599244
8.960572251,-3.363710403,9.370592117,1.31425786,10.04240101,10.04240100877299
8.963078344,-3.425923824,9.29402256,1.273579836,9.986882146,9.986882145710219
8.965584386,-3.466601849,9.217152596,1.206580877,9.921142462,9.921142462951625
8.96809048,-3.516851187,9.142974854,1.089332461,9.856412971,9.856412971409423
8.970596521,-3.54556489,9.05922699,0.9864411354,9.778225307,9.77822530724029
8.973102615,-3.59102869,9.004191399,0.8668000102,9.732537801,9.732537801617388
8.975608657,-3.626920938,8.965906143,0.7588238716,9.701435055,9.701435054861623
8.978114803,-3.672683716,8.944371223,0.6726822853,9.69241372,9.69241371947971
8.980620844,-3.696611881,8.906085968,0.6296114326,9.663318127,9.663318127031598
8.983126886,-3.715754509,8.903693199,0.5961119533,9.666329894,9.666329893705253
8.98563298,-3.727718592,8.90130043,0.5817549825,9.667857783,9.66785778266955
8.988139021,-3.739682674,8.879764557,0.5673980713,9.651807378,9.651807377962127
8.990645115,-3.739682674,8.851051331,0.5291129351,9.623216544,9.62321654460206
8.993151157,-3.71336174,8.824729919,0.4621138871,9.585325389,9.585325388323561
8.995657251,-3.694219112,8.781659126,0.3687937856,9.534191141,9.534191140784955
8.998163292,-3.660719633,8.72423172,0.3017947674,9.465947782,9.46594778230452
9.000669438,-3.614956856,8.668897629,0.2129612118,9.394841757,9.39484175761117
9.00317548,-3.552743435,8.577970505,0.1196411327,9.285358253,9.285358253735787
9.005681521,-3.500101328,8.518149376,0.03589234129,9.209281533,9.209281533229388
9.008187615,-3.406781197,8.439186096,-0.02153540403,9.100905662,9.10090566156903
9.010693657,-3.308675528,8.362615585,-0.05264209956,8.993522356,8.99352235571342
9.013199751,-3.239283562,8.293224335,-0.04067798331,8.903492717,8.903492717131057
9.015705792,-3.131606579,8.219046593,-0.0239282269,8.795468107,8.79546810713242
9.018211886,-3.040380239,8.137690544,0.02871387079,8.687159713,8.687159712701526
9.020717928,-2.935096025,8.053643227,0.06939185411,8.572092693,8.572092692755405
9.023224021,-2.836990356,7.984251022,0.1244267747,8.474211509,8.474211508134978
9.025730063,-2.741277456,7.922037601,0.1914258152,8.385101412,8.385101411739553
9.028236209,-2.647957325,7.843074322,0.2416750938,8.281539692,8.281539691772306
9.030742251,-2.566601276,7.740182877,0.2656033039,8.158947125,8.158947125359461
9.033248292,-2.506481647,7.634898663,0.2703889608,8.040350616,8.0403506161827
9.035754386,-2.470589399,7.526922703,0.308973223,7.928041486,7.9280414862637425
9.038260428,-2.429911375,7.447959423,0.347258389,7.842012321,7.842012321192805
9.040766521,-2.408375978,7.333104134,0.3640081584,7.727042968,7.7270429681008705
9.043272563,-2.410768747,7.239784241,0.3400799036,7.638189324,7.6381893239547605
9.045778709,-2.403590441,7.136892796,0.308973223,7.537104897,7.537104897916326
9.048284751,-2.39162612,7.050751209,0.304187566,7.451543343,7.451543342448612
9.050790792,-2.365305185,6.969096184,0.3496512175,7.367850854,7.367850854484669
9.053296886,-2.343769789,6.918846607,0.4405784607,7.318319792,7.31831979180039
9.055802928,-2.315055847,6.890132904,0.5458626747,7.289127593,7.289127593144668
9.058309021,-2.269592285,6.868597507,0.6511468887,7.263103547,7.263103546278397
9.060815063,-2.221735716,6.859025955,0.7109674215,7.244847916,7.244847915418795
9.063321157,-2.140379906,6.861418724,0.7540382147,7.226954177,7.226954177057879
9.065827199,-2.061416626,6.882954121,0.766002357,7.22573564,7.225735640657612
9.068333292,-1.982453585,6.914061069,0.794716239,7.236431205,7.236431204887605
9.070839334,-1.886441588,6.94756031,0.8306085467,7.24687289,7.24687289000396
9.07334548,-1.80508554,6.995417118,0.8691928387,7.276653809,7.2766538087483505
9.075851521,-1.742872238,7.01964426,0.902692318,7.288886239,7.288886238371283
9.078357563,-1.683051586,7.031608582,0.926620543,7.289362628,7.289362627987633
9.080863657,-1.637588024,7.060322285,0.9601200819,7.311065304,7.311065303776427
9.083369699,-1.611266971,7.055536747,0.9696913958,7.301854658,7.301854657769587
9.085875792,-1.565803289,7.055536747,0.9696913958,7.291957222,7.291957222255155
9.088381834,-1.544267893,7.050751209,0.950548768,7.280205966,7.280205965280923
9.090887928,-1.537089467,7.026822567,0.9337990284,7.253334409,7.253334408608471
9.093393969,-1.522732496,6.993024349,0.926620543,7.216628675,7.216628674858565
9.095900115,-1.537089467,6.9619174,0.8763712645,7.183241922,7.183241921808455
9.098406157,-1.558624864,6.921239376,0.8282157183,7.142745078,7.1427450775322425
9.100912199,-1.577767372,6.887740135,0.7540382147,7.106256939,7.106256938548279
9.103418292,-1.587338686,6.847062111,0.6870391965,7.062147443,7.062147443482849
9.105924334,-1.623231053,6.789634228,0.6200401783,7.008456451,7.008456450899794
9.108430428,-1.642373681,6.758527756,0.5267201066,6.975136042,6.975136042211694
9.110936469,-1.666301847,6.703492641,0.4525425732,6.922295155,6.922295155063474
9.113442615,-1.695015788,6.662814617,0.3735794425,6.88518255,6.885182549645052
9.115948657,-1.721336842,6.622136593,0.3281157911,6.850062303,6.8500623028075704
9.118454699,-1.74047935,6.595815659,0.2898306549,6.827741528,6.827741528778444
9.120960792,-1.74047935,6.595815659,0.2632105052,6.826663339,6.8266633390942655
9.123466834,-1.74047935,6.559923172,0.2177468538,6.790380997,6.790380996870409
9.125972928,-1.718943954,6.538387775,0.1722832322,6.762763084,6.762763083633781
9.128478969,-1.706979871,6.531209469,0.1627119333,6.752551561,6.752551560794828
9.130985063,-1.711765528,6.5288167,0.1435693651,6.751014804,6.7510148042826295
9.133491105,-1.683051586,6.531209469,0.1268195957,6.74577223,6.745772229993086
9.135997251,-1.639980793,6.51445961,0.1483550072,6.719354896,6.719354896111053
9.138503292,-1.62801671,6.516852379,0.1651047617,6.719156414,6.719156414316696
9.141009334,-1.592124343,6.504888535,0.2033899277,6.699985241,6.699985241702957
9.143515428,-1.558624864,6.492924213,0.2440679073,6.681836982,6.681836981385769
9.146021469,-1.527518153,6.478567123,0.2656033039,6.661507997,6.661507996692913
9.148527563,-1.496411443,6.468996048,0.2850449979,6.645931667,6.64593166731413
9.151033605,-1.477268934,6.471388817,0.3017947674,6.644717963,6.644717962847195
9.153539699,-1.455733418,6.476174355,0.2970091105,6.644411823,6.644411822905142
9.15604574,-1.448554993,6.473781586,0.2850449979,6.639985711,6.6399857109639715
9.158551886,-1.43659091,6.46421051,0.2826521695,6.627948643,6.62794864262029
9.161057928,-1.448554993,6.478567123,0.2970091105,6.64517554,6.645175539192455
9.163563969,-1.460519075,6.483353138,0.3113660514,6.653114511,6.653114511145718
9.166070063,-1.46769762,6.495316982,0.3305086195,6.667271927,6.667271926955961
9.168576105,-1.513161182,6.521637917,0.3520440459,6.70412954,6.704129540321948
9.171082199,-1.539482236,6.547959328,0.375972271,6.736997258,6.736997258769122
9.17358824,-1.608874083,6.576673031,0.3807578981,6.78130375,6.7813037499139766
9.176094334,-1.668694735,6.614958286,0.4046861231,6.834177793,6.834177792709705
9.178600376,-1.726122379,6.655636311,0.4310071766,6.889322198,6.889322198726593
9.181106521,-1.778764486,6.708278179,0.4334000051,6.953620265,6.953620264863698
9.183612563,-1.85294199,6.7704916,0.4118646085,7.031542006,7.0315420058270695
9.186118605,-1.929512382,6.813562393,0.4357928336,7.094897174,7.094897173984434
9.188624699,-2.008774519,6.861418724,0.4453641176,7.163280755,7.163280754758053
9.19113074,-2.082952023,6.906882763,0.4525425732,7.228313317,7.228313317261834
9.193636834,-2.137987137,6.935596466,0.4262215197,7.27015489,7.270154889754724
9.196142876,-2.176272154,6.995417118,0.4070789516,7.337420147,7.337420147157921
9.198649021,-2.257628202,7.038786888,0.4094717801,7.403315007,7.4033150069306615
9.201155063,-2.319841623,7.069893837,0.4477569461,7.454230363,7.454230363024386
9.203661105,-2.365305185,7.11296463,0.4764707983,7.511055776,7.511055775818174
9.206167199,-2.362912416,7.158428192,0.4812564552,7.553678378,7.553678378206144
9.20867324,-2.386840582,7.21346283,0.4692923427,7.612574417,7.612574417803123
9.211179334,-2.384447813,7.273283482,0.4908277392,7.669886299,7.669886299810624
9.213685376,-2.382055044,7.371389389,0.5195416212,7.764115613,7.764115613066743
9.216191521,-2.413161755,7.450352192,0.5650052428,7.851772307,7.851772307258112
9.218697563,-2.432304144,7.526922703,0.6056832075,7.933317148,7.933317148186116
9.221203605,-2.461018085,7.601399422,0.6678966284,8.017728425,8.017728424791345
9.223709699,-2.492124796,7.68275547,0.7013961077,8.107242078,8.10724207795411
9.22621574,-2.540280342,7.761718273,0.7157530785,8.198145963,8.198145963250225
9.228721834,-2.612065077,7.840681553,0.7061817646,8.294447773,8.29444777346214
9.231227876,-2.669492722,7.907680511,0.7109674215,8.376340319,8.376340318497963
9.233733969,-2.738884687,7.998608112,0.7037889361,8.483780993,8.48378099225882
9.236240011,-2.81545496,8.09671402,0.7037889361,8.601097803,8.601097803189424
9.238746157,-2.875275612,8.214261055,0.7109674215,8.731939601,8.731939601204651
9.241252199,-2.956631422,8.326724052,0.7037889361,8.864046575,8.864046574239657
9.24375824,-3.059522867,8.458329201,0.7061817646,9.022344802,9.022344802258377
9.246264334,-3.148356438,8.582756042,0.7037889361,9.169033123,9.169033122623143
9.248770376,-3.215355396,8.714659691,0.7037889361,9.315531263,9.315531263384997
9.251276469,-3.287140131,8.834300995,0.7109674215,9.452811168,9.452811168405038
9.253782511,-3.387638569,8.958727837,0.7181459069,9.604719312,9.604719312671884
9.256288657,-3.476173162,9.073583603,0.7157530785,9.742997574,9.74299757375633
9.258794699,-3.552743435,9.174081802,0.7109674215,9.863632065,9.863632064263019
9.26130074,-3.626920938,9.274879456,0.71336025,9.984329084,9.98432908412547
9.263806834,-3.696611881,9.36580658,0.7013961077,10.09332595,10.093325952956159
9.266312876,-3.76361084,9.466305733,0.684646368,10.21001721,10.210017210309186
9.268818969,-3.825824261,9.547661781,0.6870391965,10.30857893,10.308578933002922
9.271325011,-3.888037682,9.636196136,0.7157530785,10.41563322,10.41563322402894
9.273831105,-3.933501244,9.746265411,0.7253243923,10.53509454,10.535094540262556
9.276337146,-3.983750582,9.837491989,0.7564310431,10.64042787,10.64042786997731
9.278843292,-4.022035599,9.978668213,0.7827520967,10.78718177,10.787181768638561
9.281349334,-4.043570995,10.1270237,0.818644464,10.9351385,10.935138507143146
9.283855376,-4.08424902,10.32084274,0.8644071817,11.13319742,11.133197415700316
9.286361469,-4.120141506,10.51735306,0.9337990284,11.33411937,11.334119376625432
9.288867511,-4.156033993,10.76859951,0.9720842242,11.58362213,11.583622131988001
9.291373605,-4.208974838,11.06321526,0.9984052777,11.87884734,11.878847342000537
9.293879646,-4.271188259,11.36231804,1.024726272,12.18176442,12.181764417294234
9.29638574,-4.323830605,11.69521999,1.015154958,12.51016472,12.510164719298555
9.298891782,-4.388436794,12.03021526,0.9744769931,12.8426657,12.842665693186563
9.301397928,-4.462614059,12.32961655,0.9625129104,13.14765377,13.147653768346085
9.303903969,-4.548755646,12.62901878,0.9337990284,13.45567813,13.455678128509554
9.306410011,-4.639683247,12.89222908,0.8883354068,13.73045415,13.730454146846878
9.308916105,-4.752145767,13.11954784,0.8401798606,13.97896016,13.978960158574832
9.311422146,-4.862514496,13.28255844,0.8282157183,14.1688513,14.168851301776886
9.31392824,-4.934299469,13.39502144,0.8138588071,14.29812144,14.298121442543689
9.316434282,-5.039583683,13.47398472,0.8234301209,14.40915352,14.409153517703901
9.318940428,-5.132903576,13.50748348,0.8620143533,14.4755614,14.475561399416662
9.321446469,-5.235795021,13.51705551,0.9337990284,14.52571237,14.525712367653112
9.323952511,-5.321936607,13.47398472,1.003190875,14.5216275,14.521627505737895
9.326458605,-5.391627789,13.40698528,1.103689432,14.49258552,14.492585513826103
9.328964646,-5.475376606,13.30887985,1.220937729,14.44287786,14.442877856485659
9.33147074,-5.528018475,13.18415356,1.371685624,14.36183883,14.361838837860919
9.333976782,-5.561518192,13.02861977,1.572981834,14.25305895,14.253058954528877
9.336482876,-5.56630373,12.86830139,1.797907114,14.13539486,14.135394860740877
9.338988917,-5.532804012,12.72712421,2.068595171,14.03106186,14.0310618583718
9.341495063,-5.475376606,12.54018497,2.310270309,13.87707956,13.877079554430498
9.344001105,-5.396413326,12.41575813,2.48733902,13.76441725,13.764417246222452
9.346507146,-5.288437366,12.26501083,2.595315218,13.60638532,13.606385321418202
9.34901324,-5.171188831,12.0975132,2.626421928,13.41600207,13.416002075652516
9.351519282,-5.051547527,11.94646645,2.616850615,13.23193486,13.231934862284552
9.354025376,-4.948656559,11.80050373,2.578565598,13.05335553,13.053355528900097
9.356531417,-4.855336189,11.66411304,2.614457846,12.90198483,12.901984821980765
9.359037563,-4.77637291,11.54207897,2.65513587,12.77039826,12.770398255859478
9.361543605,-4.697110653,11.41735363,2.659921408,12.62909317,12.629093169968181
9.364049646,-4.577469826,11.31924725,2.695813894,12.50383944,12.503839444972751
9.36655574,-4.467400074,11.20917797,2.767598391,12.37994083,12.379940833387465
9.369061782,-4.36211586,11.07039356,2.84656167,12.23456504,12.234565038875152
9.371567876,-4.299902439,10.94596672,2.966202736,12.12854926,12.128549257488283
9.374073917,-4.220939159,10.8116703,3.105285645,12.01463029,12.0146302896479
9.376580063,-4.141676903,10.66570759,3.215355396,11.88483556,11.884835559939969
9.379086105,-4.067499161,10.50538826,3.301496983,11.73914879,11.739148787149759
9.381592146,-3.990929127,10.38335514,3.378067255,11.6255287,11.625528703650629
9.38409824,-3.907180309,10.24905777,3.447459221,11.49757445,11.497574449434657
9.386604282,-3.821038723,10.11745262,3.509672642,11.3701797,11.370179703708011
9.389110376,-3.730111361,10.01216793,3.61017108,11.27787979,11.277879794130195
9.391616417,-3.631706476,9.933204651,3.696611881,11.20369519,11.203695192445158
9.394122563,-3.543172121,9.870991707,3.749253988,11.13765915,11.137659153755259
9.396628605,-3.433102369,9.810872078,3.816252947,11.07263245,11.072632449530673
9.399134646,-3.315854073,9.796515465,3.885644913,11.04829579,11.048295790724362
9.40164074,-3.220141172,9.798908234,3.911965847,11.03138199,11.031381986589757
9.404146782,-3.117249727,9.808479309,3.907180309,11.00861345,11.008613454136722
9.406652876,-3.004487991,9.825528145,3.883252144,10.98397008,10.983970075984864
9.409158917,-2.923131943,9.849455833,3.84257412,10.96913198,10.96913198161543
9.411665011,-2.829811811,9.88534832,3.80907464,10.96526315,10.965263148073241
9.414171053,-2.748456001,9.93559742,3.725325823,10.96121156,10.961211564843287
9.416677199,-2.667099953,9.961918831,3.629313707,10.9327566,10.932756602913242
9.41918324,-2.602493763,9.985847473,3.509672642,10.89990484,10.89990484336802
9.421689282,-2.542673111,10.0145607,3.3852458,10.87274122,10.872741222424295
9.424195376,-2.475374937,10.04566765,3.258426189,10.84713146,10.847131456848182
9.426701417,-2.401197433,10.05284595,3.126821041,10.79826239,10.79826238934383
9.429207511,-2.34137702,10.04327488,2.970988512,10.73201702,10.73201702400155
9.431713553,-2.283949137,10.04327488,2.827419043,10.68073464,10.680734638608016
9.434219646,-2.214557409,10.06241703,2.710170746,10.65370952,10.653709517152466
9.436725688,-2.126022816,10.04566765,2.633600473,10.60053126,10.600531260262144
9.439231834,-2.001596212,10.01695347,2.499303341,10.51628553,10.516285532752121
9.441737876,-1.876870275,9.995418549,2.315055847,10.43026929,10.430269295353822
9.444243917,-1.769193292,9.9643116,2.142772675,10.34451668,10.344516678080181
9.446750011,-1.666301847,10.00020409,2.025524378,10.33844247,10.338442469387767
9.449256053,-1.565803289,10.0648098,1.97527504,10.37563722,10.37563722060801
9.451762146,-1.520339727,10.11027431,1.963011861,10.41069139,10.410691383158328
9.454268188,-1.443769336,10.14855862,1.97527504,10.43932102,10.439321024032031
9.456774334,-1.398006678,10.17488003,1.941476464,10.45236514,10.452365146553738
9.459280376,-1.340578914,10.18923664,1.862513304,10.44445551,10.444455511808977
9.461786417,-1.271187067,10.22512913,1.752443433,10.4518056,10.451805598572307
9.464292511,-1.242473125,10.2969141,1.697408557,10.50958492,10.509584923226175
9.466798553,-1.228116274,10.32562828,1.70937264,10.53797057,10.537970572248717
9.469304646,-1.194616675,10.35912704,1.754836321,10.57440649,10.574406486633093
9.471810688,-1.175474167,10.40489006,1.769193292,10.61948782,10.619487821097067
9.474316834,-1.149153113,10.42642593,1.766800404,10.63731612,10.637316119137784
9.476822876,-1.130010486,10.44796085,1.771586061,10.65717255,10.657172551532238
9.479328917,-1.120439172,10.44078255,1.821835399,10.65759862,10.65759862331032
9.481835011,-1.103689432,10.41206837,1.896012783,10.64068431,10.640684309627947
9.484341053,-1.091725349,10.40489006,1.992024899,10.64996547,10.649965473961496
9.486847146,-1.077368379,10.3471632,2.078166485,10.60864199,10.60864198900503
9.489353188,-1.05822587,10.27298546,2.176272154,10.55415713,10.554157130798481
9.491859334,-1.043868899,10.1964159,2.267199516,10.49746413,10.497464128513272
9.494365376,-1.034297585,10.09830952,2.365305185,10.42306554,10.42306554110869
9.496871417,-1.003190875,9.981060982,2.494517565,10.33685581,10.336855815003885
9.499377511,-0.97926265,9.861420631,2.619243383,10.25021991,10.2502199048892
9.501883553,-0.9625129104,9.72712326,2.746062994,10.15303994,10.153039938113903
9.504389646,-0.955334425,9.542876244,2.872882605,10.01162351,10.011623511399199
9.506895688,-0.9361918569,9.363413811,3.009273529,9.879559735,9.879559735195263
9.509401782,-0.9074779749,9.171689034,3.157927752,9.74247934,9.742479340402843
9.511907824,-0.8979067206,8.975478172,3.301496983,9.605484227,9.605484226404476
9.514413969,-0.8883354068,8.769695282,3.425923824,9.456936564,9.456936564340397
9.516920011,-0.9194421172,8.542078018,3.533600807,9.28971503,9.289715029844084
9.519426053,-0.9290133715,8.336295128,3.629313707,9.139409187,9.139409187106157
9.521932146,-0.955334425,8.134998322,3.684647799,8.981508278,8.981508278970098
9.524438188,-0.9744769931,7.934001446,3.71336174,8.814025174,8.814025173966044
9.526944282,-1.005583763,7.728219032,3.732504129,8.641073729,8.641073728650758
9.529450324,-1.05822587,7.543672562,3.715754509,8.475474576,8.475474575843098
9.531956469,-1.094118118,7.373782158,3.66789794,8.308022211,8.308022211575462
9.534462511,-1.1395818,7.194320202,3.61017108,8.129589477,8.12958947762216
9.536968553,-1.168295622,7.024429798,3.531208038,7.948393477,7.948393476360521
9.539474646,-1.192223907,6.882954121,3.430709362,7.78243034,7.782430340371039
9.541980688,-1.211366415,6.736992359,3.339782238,7.616339018,7.616339017787656
9.544486834,-1.230509043,6.595815659,3.220141172,7.442327988,7.442327987936565
9.546992876,-1.26640141,6.480959892,3.105285645,7.297219511,7.297219510882601
9.549498917,-1.307079315,6.380162239,2.978166819,7.161313017,7.161313017419007
9.552005011,-1.352542996,6.298806667,2.851347208,7.045176995,7.045176994571656
9.554511053,-1.369292736,6.246164322,2.717349291,6.947914687,6.947914687414224
9.557017146,-1.412662625,6.210271835,2.592922449,6.876506292,6.876506291947556
9.559523188,-1.45334065,6.15045166,2.482553482,6.789943038,6.7899430379002075
9.562029282,-1.498804331,6.145665646,2.355733871,6.750192792,6.75019279176718
9.564535324,-1.544267893,6.138487339,2.221735716,6.708345528,6.708345528382091
9.567041469,-1.606481314,6.131309032,2.094916344,6.675508007,6.675508006621988
9.569547511,-1.654337764,6.114559174,1.977667928,6.635950403,6.6359504039123065
9.572053553,-1.687837243,6.102594852,1.848156333,6.595918459,6.595918458995892
9.574559646,-1.754836321,6.102594852,1.72372961,6.579692866,6.5796928658979565
9.577065688,-1.821835399,6.093023777,1.613659739,6.561091428,6.56109142760611
9.579571782,-1.8840487,6.095416546,1.494018674,6.552544099,6.552544099163544
9.582077824,-1.946262121,6.083452702,1.417448282,6.542590668,6.542590668325145
9.584583969,-1.984846354,6.064310074,1.328614831,6.517721158,6.517721157870911
9.587090011,-2.032702923,6.061916828,1.26640141,6.51785926,6.517859260064789
9.589596053,-2.094916344,6.052345753,1.230509043,6.5217878,6.521787799915008
9.592102146,-2.152343988,6.037988663,1.194616675,6.520506172,6.5205061718692
9.594608188,-2.202593327,6.016453266,1.175474167,6.513897971,6.513897971521456
9.597114282,-2.238485575,6.004489422,1.180259824,6.515959188,6.515959188065982
9.599620324,-2.279163599,5.975775242,1.189831018,6.505395784,6.505395783909055
9.602126417,-2.32701993,6.004489422,1.211366415,6.552581443,6.552581442829768
9.604632459,-2.367697954,6.00927496,1.242473125,6.577318497,6.577318497123737
9.607138605,-2.410768747,6.02363205,1.278365493,6.612878901,6.6128789009774165
9.609644646,-2.46819663,6.040381432,1.304686546,6.654352668,6.654352668119352
9.612150688,-2.492124796,6.054738522,1.352542996,6.685799662,6.685799662318446
9.614656782,-2.557030201,6.076273918,1.390828133,6.737500358,6.737500357769003
9.617162824,-2.638386011,6.081059456,1.441376567,6.783651764,6.783651764230252
9.619668969,-2.683849812,6.100202084,1.48444736,6.827818044,6.827818044120783
9.622175011,-2.743670225,6.116951942,1.508375525,6.87168277,6.871682769795776
9.624681053,-2.796312332,6.13609457,1.556231976,6.92046799,6.920467989464559
9.627187146,-2.872882605,6.162415504,1.613659739,6.988041003,6.9880410029793545
9.629693188,-2.927917719,6.18634367,1.66151619,7.04302394,7.043023940198936
9.632199282,-2.985345364,6.217450619,1.699801445,7.103400882,7.1034008822875725
9.634705324,-3.047558784,6.253343105,1.754836321,7.174354678,7.174354677898732
9.637211469,-3.095714331,6.270092487,1.802692771,7.221302392,7.221302392318735
9.639717511,-3.133999348,6.277271271,1.840977907,7.253639512,7.253639512482578
9.642223553,-3.208176851,6.284449577,1.864906192,7.298258717,7.298258716852103
9.644729646,-3.253640652,6.294020653,1.90079844,7.335796356,7.335796356377674
9.647235688,-3.306282759,6.31316328,1.943869352,7.386891386,7.3868913854236355
9.649741782,-3.363710403,6.346662998,1.97527504,7.449589947,7.44958994637153
9.652247824,-3.406781197,6.363412857,2.018345833,7.494858318,7.494858318504368
9.654753917,-3.468994617,6.401698112,2.07098794,7.569983714,7.569983713165094
9.657259959,-3.500101328,6.449554443,2.114058733,7.636537576,7.6365375757644225
9.659766105,-3.528815269,6.533602238,2.176272154,7.738000769,7.738000768635394
9.662272146,-3.571886063,6.581458569,2.21216464,7.808177722,7.80817772191332
9.664778188,-3.612564087,6.674778938,2.250449657,7.916300703,7.916300702508841
9.667284282,-3.653541088,6.7704916,2.293520451,8.027960827,8.027960827416264
9.669790324,-3.689433336,6.897311211,2.291127682,8.150710787,8.150710787250464
9.672296417,-3.732504129,7.014858723,2.271985054,8.264487042,8.264487041689316
9.674802459,-3.770789385,7.108178616,2.240878344,8.352639796,8.352639796830493
9.677308605,-3.821038723,7.203891754,2.204986095,8.447387585,8.447387584641657
9.679814646,-3.852145433,7.316354275,2.161915302,8.546457868,8.546457867872238
9.682320688,-3.89043045,7.41924572,2.10209465,8.63709778,8.637097779785995
9.684826782,-3.933501244,7.517351627,2.056631088,8.729990776,8.729990776205732
9.687332824,-3.964607954,7.615756035,2.023131609,8.821049695,8.8210496949566
9.689838917,-4.002892971,7.721040249,1.980060697,8.919543431,8.919543431575594
9.692344959,-4.026821613,7.838288784,1.968096614,9.029256207,9.029256206706197
9.694851105,-4.04835701,7.962715626,1.968096614,9.146990702,9.146990702028672
9.697357146,-4.065106392,8.084749222,1.958226204,9.258666741,9.258666741326264
9.699863188,-4.074677944,8.199904442,1.953440547,9.362551104,9.362551104048247
9.702369282,-4.081856251,8.309973717,1.953440547,9.462195496,9.462195495852018
9.704875324,-4.081856251,8.422436714,1.955833435,9.561604211,9.56160421062422
9.707381469,-4.09860611,8.515756607,1.963011861,9.652465913,9.652465912968571
9.709887511,-4.117748737,8.6090765,1.943869352,9.739131425,9.739131424391102
9.712393553,-4.105784416,8.673683167,1.929512382,9.788424969,9.788424969547394
9.714899646,-4.1129632,8.733802795,1.951047778,9.848977865,9.848977864658993
9.717405688,-4.100998878,8.791230202,1.972882271,9.899302234,9.899302233851653
9.719911782,-4.093820572,8.84387207,1.994417667,9.947418856,9.947418855999691
9.722417824,-4.096213341,8.882157326,2.042274237,9.992125227,9.992125227293531
9.724923917,-4.089034557,8.906085968,2.097309113,10.02183997,10.021839970445523
9.727429959,-4.086641788,8.90130043,2.18105793,10.03448076,10.034480760984192
9.729936105,-4.089034557,8.930013657,2.264806747,10.07941948,10.07941948347242
9.732442146,-4.086641788,8.930013657,2.34137702,10.09593143,10.095931426441961
9.734948188,-4.062713623,8.937192917,2.434697151,10.11468286,10.114682863801132
9.737454282,-4.067499161,8.965906143,2.537887573,10.16724622,10.167246221224735
9.739960324,-4.055535316,8.992227554,2.650350094,10.21429776,10.214297758681496
9.742466469,-4.026821613,9.020941734,2.765205622,10.2586083,10.258608297575616
9.744972511,-4.024428368,9.075976372,2.892025232,10.3408501,10.340850097394801
9.747478553,-4.017250061,9.12861824,2.994916677,10.41342859,10.413428586514527
9.749984646,-3.998107433,9.195617676,3.085843801,10.49126682,10.491266818318158
9.752490688,-4.007678986,9.274879456,3.191427231,10.595758,10.595757997846365
9.754996782,-4.017250061,9.353842735,3.294318676,10.69977605,10.699776049187161
9.757502824,-4.041178226,9.454340935,3.411566973,10.83302696,10.833026962985809
9.760008969,-4.045963764,9.569196701,3.519243956,10.96924912,10.969249122153842
9.762515011,-4.053142548,9.710372925,3.605385542,11.12286437,11.12286436865269
9.765021053,-4.08424902,9.830313683,3.69900465,11.2693741,11.26937409815956
9.767527146,-4.117748737,9.969097137,3.758825302,11.42223796,11.422237961054833
9.770033188,-4.158426762,10.13180923,3.79471755,11.59077015,11.590770150956708
9.772539282,-4.199104786,10.30169964,3.852145433,11.77270236,11.772702362396114
9.775045324,-4.230510235,10.47667503,3.878466368,11.94572886,11.945728855970756
9.777551417,-4.249652863,10.63938713,3.900001764,12.10231886,12.102318857029708
9.780057459,-4.278367043,10.81406307,3.89043045,12.26310865,12.26310864841593
9.782563605,-4.29750967,10.9746809,3.854538202,12.40039011,12.400390113671655
9.785069646,-4.29750967,11.11107159,3.780360699,12.49862505,12.498625054636706
9.787575688,-4.321437836,11.25464153,3.715754509,12.61541171,12.615411705939959
9.790081782,-4.302295208,11.40299606,3.622135162,12.71447704,12.714477037336298
9.792587824,-4.266402721,11.53729343,3.552743435,12.80364471,12.803644706981407
9.795093917,-4.256831646,11.65454197,3.454637766,12.87957632,12.879576324054764
9.797599959,-4.223331928,11.78614712,3.349353552,12.96024559,12.960245588901605
9.800106105,-4.187140465,11.91296673,3.253640652,13.03982742,13.03982741741908
9.802612146,-4.182354927,12.02064323,3.153141975,13.112218,13.112217993644435
9.805118188,-4.153641224,12.14297676,3.081058264,13.19839157,13.198391570103343
9.807624282,-4.136891365,12.28654575,3.030808926,13.31386043,13.313860423580229
9.810130324,-4.103391647,12.44207954,2.980559587,13.43602999,13.436029984337397
9.812636417,-4.086641788,12.62393379,2.923131943,13.58709115,13.587091145418823
9.815142459,-4.069892406,12.84437275,2.884846687,13.77912464,13.77912464363589
9.817648605,-4.069892406,13.07647705,2.884846687,13.99573566,13.995735659231636
9.820154646,-4.072285175,13.36870003,2.920739174,14.27712731,14.277127314736147
9.822660688,-4.067499161,13.67498112,3.009273529,14.58099397,14.580993972614907
9.825166782,-4.077070713,14.01745415,3.136392355,14.93145952,14.931459521783427
9.827672824,-4.110570431,14.36471272,3.246462107,15.28990768,15.28990768476148
9.830178969,-4.153641224,14.69252968,3.351746321,15.63193421,15.631934212237786
9.832685011,-4.187140465,14.99193096,3.468994617,15.94754097,15.947540965171461
9.835191053,-4.240081787,15.29342651,3.564707518,16.26574092,16.265740919678564
9.837697146,-4.285545349,15.5617218,3.605385542,16.53879951,16.538799509800988
9.840203188,-4.338187218,15.79143333,3.598206997,16.76712046,16.76712046081596
9.842709282,-4.371686935,15.97089481,3.574278831,16.9397933,16.93979329423678
9.845215324,-4.417150497,16.1195488,3.497708559,17.07586124,17.075861243065624
9.847721417,-4.436293125,16.220047,3.409173965,17.15788706,17.157887063877215
9.850227459,-4.436293125,16.28465271,3.303889751,17.19843883,17.198438826329426
9.852733605,-4.414757729,16.31575966,3.189034462,17.20069882,17.200698819771024
9.855239646,-4.376472473,16.27986717,3.064308405,17.13410553,17.134105531971144
9.857745688,-4.319045067,16.19851112,2.939881802,17.02024729,17.020247289780233
9.860251782,-4.213760853,16.08365631,2.81545496,16.86317193,16.863171927495333
9.862757824,-4.074677944,15.88236046,2.695813894,16.61685249,16.616852490161154
9.865263969,-3.952643871,15.65504169,2.580958366,16.35130179,16.351301782231815
9.867770011,-3.813860178,15.37717533,2.484946251,16.03677051,16.036770512084214
9.870276053,-3.660719633,15.07567978,2.374876499,15.69449035,15.6944903531792
9.872782146,-3.49531579,14.79302788,2.293520451,15.37241498,15.372414982345353
9.875288188,-3.349353552,14.49153233,2.236092806,15.04070442,15.04070442249216
9.877794282,-3.196212769,14.2184515,2.178664923,14.73522039,14.735220390930076
9.880300324,-3.049951553,13.95284748,2.13559413,14.44108443,14.441084431713566
9.882806469,-2.903989315,13.7108736,2.11645174,14.17394006,14.173940058592041
9.885312511,-2.748456001,13.48116302,2.111665964,13.91958692,13.91958691573728
9.887818553,-2.607279301,13.31366539,2.126022816,13.7321362,13.732136195234137
9.890324646,-2.470589399,13.16979694,2.140379906,13.56939902,13.569399012531584
9.892830688,-2.338984251,13.04058456,2.159522533,13.42353272,13.423532715476622
9.895336782,-2.238485575,12.92812157,2.161915302,13.29740662,13.297406618254708
9.897842824,-2.109273195,12.83480167,2.173879385,13.18737726,13.187377256297335
9.900348969,-2.018345833,12.73669624,2.171486616,13.07717497,13.077174967671182
9.902855011,-1.912762642,12.65534019,2.185843468,12.98438324,12.984383232016002
9.905361053,-1.838585138,12.5928278,2.183450699,12.91228733,12.912287336684036
9.907867146,-1.7883358,12.52104282,2.204986095,12.83887152,12.838871520230217
9.910373188,-1.718943954,12.44447231,2.233700037,12.75966596,12.759665953568051
9.912879282,-1.671087503,12.3798666,2.315055847,12.70484609,12.704846085301751
9.915385324,-1.632802367,12.3176527,2.420340061,12.65893588,12.658935880174903
9.917891469,-1.630409479,12.24586773,2.45383954,12.59527054,12.595270541673006
9.920397511,-1.611266971,12.15733337,2.465803623,12.50908164,12.509081638088025
9.922903553,-1.608874083,12.09033489,2.475374937,12.44556767,12.445567670702214
9.925409646,-1.599302888,12.05892849,2.494517565,12.41765453,12.417654526382682
9.927915688,-1.565803289,12.06640625,2.417947292,12.40549752,12.40549752475782
9.930421834,-1.546660781,12.04935741,2.37248373,12.37771597,12.377715969213389
9.932927876,-1.582553029,11.93928814,2.540280342,12.30870016,12.308700158647678
9.935433917,-1.668694735,11.81246853,2.760420084,12.244953,12.244952998317618
9.937940011,-1.800299883,11.70718384,2.858525753,12.18484315,12.184843150933508
9.940446053,-1.924726725,11.5899353,2.767598391,12.07024333,12.070243331349253
9.942952146,-2.035095692,11.47478104,2.533101797,11.92597246,11.925972459531552
9.945458188,-2.121237278,11.40538883,2.243271112,11.81587099,11.815870989266907
9.947964334,-2.16670084,11.36471081,2.003988981,11.74168711,11.741687108799868
9.950470376,-2.188236237,11.38385391,1.8840487,11.74436662,11.744366614556695
9.952976417,-2.183450699,11.4077816,1.876870275,11.76552506,11.765525063397755
9.955482511,-2.173879385,11.41735363,1.910369754,11.77842214,11.778422139234106
9.957988553,-2.169093609,11.42692471,1.982453585,11.79871593,11.798715931375439
9.960494646,-2.185843468,11.39103222,2.035095692,11.77604098,11.776040980706263
9.963000688,-2.23130703,11.32881927,2.061416626,11.72903729,11.729037284466274
9.965506834,-2.274377823,11.25224876,2.051845312,11.66173083,11.66173082449823
9.968012876,-2.338984251,11.1876421,2.003988981,11.60388533,11.603885337251823
9.970518917,-2.40598321,11.08235836,1.934298038,11.50430054,11.504300540496777
9.973025011,-2.496910334,10.99143124,1.843370795,11.42121437,11.421214375343055
9.975531053,-2.561815739,10.91934681,1.75722909,11.35265998,11.3526599840032
9.978037146,-2.621636391,10.8116703,1.690230131,11.25264724,11.252647241349827
9.980543188,-2.693420887,10.72313595,1.637588024,11.1768446,11.176844600022784
9.983049334,-2.760420084,10.6226368,1.582553029,11.08894971,11.088949711963792
9.985555376,-2.834597588,10.54606628,1.553839207,11.03036146,11.030361451432988
9.988061417,-2.887239695,10.47667503,1.522732496,10.97340362,10.973403619432924
9.990567511,-2.939881802,10.37109184,1.505982757,10.88441248,10.884412479680595
