Time (s),Acceleration x (m/s^2),Acceleration y (m/s^2),Acceleration z (m/s^2),Absolute acceleration (m/s^2),magnitude
9.773821665,8.989834785,4.759324074,-7.522137165,12.65112021,
9.776327707,9.516554832,4.551148891,-7.414460182,12.8938742,
9.778833748,10.08634567,4.278367043,-7.120142937,13.06656914,
9.78133979,10.70877838,4.014857292,-6.631708145,13.22030886,
9.783845884,11.37906837,3.806681633,-6.116951942,13.46815218,
9.786351925,12.04696465,3.64127779,-5.595017433,13.77288936,
9.788857967,12.67687511,3.49531579,-5.152046204,14.12317157,
9.791364009,13.17697525,3.344567776,-4.768895626,14.40698358,
9.79387005,13.56251907,3.16032052,-4.436293125,14.61541125,
9.796376092,13.78774357,2.863311291,-4.16081953,14.68376122,
9.798882134,13.86192036,2.511267424,-3.921537161,14.62319232,
9.801388175,13.79970741,2.202593327,-3.799503326,14.48169768,
9.803894217,13.60558987,1.970489502,-3.799503326,14.26292852,
9.806400259,13.31605816,1.800299883,-3.806681633,13.9660055,
9.8089063,12.96879959,1.639980793,-3.847359657,13.62649904,
9.811412342,12.55693531,1.438983679,-3.892823458,13.22502828,
9.813918384,12.08794212,1.180259824,-3.87368083,12.7482062,
9.816424425,11.60429287,1.007976532,-3.782753468,12.24683034,
9.818930467,11.19242764,0.97926265,-3.636492252,11.80904177,
9.821436509,10.82602692,1.132403374,-3.442673683,11.4165318,
9.82394255,10.54845905,1.412662625,-3.203391314,11.1142845,
9.826448592,10.30887794,1.699801445,-2.954238653,10.85770765,
9.828954686,10.12223816,1.934298038,-2.714956284,10.65702594,
9.831460727,9.990633011,2.13559413,-2.523231506,10.52331732,
9.833966769,9.899705887,2.317448616,-2.413161755,10.4497892,
9.836472759,9.847063065,2.43708992,-2.470589399,10.44068342,
9.838978852,9.772586823,2.458625317,-2.726920605,10.43955879,
9.841484894,9.717552185,2.446661234,-3.117249727,10.4944851,
9.843990936,9.612267494,2.492124796,-3.619742393,10.56924346,
9.846496977,9.408877373,2.57617259,-4.17517662,10.61111391,
9.849003019,9.054440498,2.726920605,-4.718646049,10.56809393,
9.851509061,8.563612938,2.992523909,-5.207081318,10.459654,
9.854015102,7.91007328,3.346960783,-5.647659779,10.27946821,
9.856521144,7.189534664,3.854538202,-5.990132332,10.12069952,
9.859027186,6.492924213,4.517649174,-6.167201042,10.03003428,
9.861533227,5.935097694,5.353342533,-6.267699718,10.15715121,
9.864039269,5.58066082,6.246164322,-6.320342064,10.49309619,
9.866545311,5.446662426,7.156035423,-6.363412857,11.01671447,
9.869051352,5.58066082,8.08953476,-6.370591164,11.7119076,
9.871557394,5.93031168,9.008976936,-6.344270229,12.51319411,
9.874063436,6.425626278,9.837491989,-6.310770512,13.33756897,
9.876569477,7.029215813,10.53649521,-6.31316328,14.15216015,
9.879075519,7.680362701,11.06082249,-6.372983932,14.89780821,
9.881581561,8.362615585,11.42692471,-6.361020088,15.52322532,
9.884087654,9.090332985,11.67607689,-6.339484692,16.09826051,
9.886593696,9.875777245,11.8148613,-6.457031727,16.6977598,
9.889099738,10.69681454,11.83161068,-6.7202425,17.30810538,
9.891605779,11.44606686,11.72871971,-7.03400135,17.83402612,
9.894111821,12.04457188,11.51575851,-7.254140854,18.1743491,
9.896617863,12.46840096,11.21874905,-7.258926392,18.27603253,
9.899123904,12.78455257,10.81645584,-7.031608582,18.16270962,
9.901629946,13.01904869,10.3471632,-6.545566559,17.87187334,
9.904135988,13.11236858,9.703194618,-5.779264927,17.30566667,
9.906642029,13.08604813,8.798408508,-4.737788677,16.46521453,
9.909148071,12.89462185,7.560422421,-3.483351469,15.34812683,
9.911654113,12.47557926,6.026024818,-2.19780755,14.02795106,
9.914160154,11.84836006,4.290330887,-0.9625129104,12.63791938,
9.916666196,11.11107159,2.51844573,0.1028913707,11.39337822,
9.919172238,10.32562828,0.794716239,0.9720842242,10.40168837,
9.921678279,9.612267494,-0.7971090674,1.561017632,9.770764826,
9.924184321,8.97308445,-2.171486616,1.93190515,9.432065319,
9.926690363,8.482256889,-3.308675528,2.106880426,9.345317588,
9.929196404,8.20468998,-4.237689018,2.003988981,9.449387161,
9.931702446,8.199904442,-4.900799751,1.561017632,9.679516884,
9.934208488,8.46072197,-5.26690197,0.7636095285,9.995357528,
9.936714529,9.004191399,-5.314758301,-0.2344966233,10.45835107,
9.939220623,9.715159416,-4.802694321,-1.338186026,10.91974986,
9.941726665,10.35673428,-3.148356438,-2.26241374,11.05859887,
9.944232707,11.02014446,-1.18743825,-3.514458179,11.62776891,
9.946738748,11.86750317,0.4668995142,-5.183153152,12.95842209,
9.94924479,12.77498055,0.9601200819,-6.997809887,14.59764713,
9.951750832,13.69412422,0.6104688644,-8.908478737,16.34817127,
9.954256873,14.68295765,0.347258389,-10.88584709,18.28145237,
9.956762915,15.55932903,0.9912267923,-11.78614712,19.54452646,
9.959268957,16.10279846,2.080559254,-10.91934681,19.56683367,
9.961774998,15.97807312,3.356531858,-9.698409081,18.99010967,
9.96428104,14.99910927,4.599005222,-9.205188751,18.18954721,
9.966787082,13.53141212,5.386841774,-8.886942863,17.06150438,
9.969293123,12.09272766,6.34187746,-8.592327118,16.13324386,
9.971799165,11.07278633,8.372187614,-8.164011955,16.10438492,
9.974305207,11.27856922,13.63669586,-8.08953476,19.45780487,
9.976811248,12.86590862,23.04557419,-10.9049902,28.55781689,
9.97931729,15.31256962,34.19971848,-17.26630974,41.25798085,
9.981823332,17.82174301,45.61706924,-22.4638195,53.88093092,
9.984329373,19.44018936,54.32933807,-22.41596222,61.90374221,
9.986835415,18.78395653,54.84409332,-18.33889198,60.80317882,
9.989341457,15.43490219,46.90291214,-9.176474571,50.2227743,
9.99184755,10.00977516,35.05425262,9.461520195,37.66319942,
9.994353592,6.011667728,21.51326942,26.87139893,34.94328248,
9.996859634,6.909275532,9.456734657,36.68227005,38.50658197,
9.999365675,10.98425198,1.309472203,37.35525131,38.95873855,
10.00187172,14.58245945,-3.718147278,31.6498642,35.04549395,
10.00437776,16.93580055,-6.866204739,22.69352913,29.13695887,
10.0068838,18.41785431,-9.530911446,13.2777729,24.62427428,
10.00938984,18.90150452,-14.3383913,2.169093609,23.82354519,
10.01189588,19.73689842,-15.8249321,-6.274878502,26.06430002,
10.01440193,20.54148483,-16.09322739,-14.29502201,29.75386061,
10.01690797,19.68664932,-17.15623856,-20.45265198,33.16943858,
10.01941401,17.60369682,-18.70738602,-23.13171577,34.56779872,
10.02192005,14.98714542,-20.35215378,-22.71985054,33.98553074,
10.02442609,12.36550903,-22.01606178,-21.38166428,33.08758615,
10.02693213,10.64895821,-23.34019089,-21.80070877,33.66653716,
10.02943818,10.19162941,-23.64647102,-25.29123878,36.09254301,
10.03194422,11.44128132,-22.14048958,-31.36751175,40.06276314,
10.03445026,14.13948822,-18.74088669,-37.89632797,44.57889226,
10.0369563,16.97408485,-13.87627792,-42.09064865,47.45833277,
10.03946234,19.52393723,-7.737790108,-42.50251389,47.40802893,
10.04196844,22.01606178,-0.8715856671,-39.96940994,45.64011798,
10.04447448,24.65205574,5.463412285,-35.3967247,43.47989013,
10.04698052,27.40290451,10.56760216,-27.83630371,40.46545682,
10.04948656,30.2446804,15.03978729,-16.99801445,37.81360059,
10.0519926,33.13670349,19.68904114,-2.81545496,38.64746105,
10.05449864,35.68894958,24.28326225,12.46122169,44.92950027,
10.05700469,36.94099426,28.51377106,25.21227455,53.04084261,
10.05951073,36.2491684,30.83839989,33.01467133,57.92216881,
10.06201677,33.71367645,29.36112976,34.9633255,56.75492975,
10.06452281,30.07239723,24.22822571,29.72513771,48.73335416,
10.06702885,25.82274437,17.35723686,19.41147423,36.6727846,
10.06953489,21.66192436,11.01775169,6.672386169,25.20219349,
10.07204094,18.22373772,6.430411816,-5.465805054,20.0830734,
10.07454698,15.83928967,3.79471755,-15.2096777,22.28491135,
10.07705302,14.23520088,3.021237612,-21.46062851,25.92927683,
10.07955906,12.94008541,3.816252947,-23.41915321,27.0271407,
10.0820651,11.44128132,5.731408596,-21.5970192,25.10344998,
10.08457114,9.490233421,7.608577728,-16.50000763,20.4989082,
10.08707719,7.409674644,8.927620888,-10.16770172,15.42685488,
10.08958323,5.343770981,9.432806015,-4.558327198,11.76061497,
10.09208932,3.313461065,9.298808098,-0.5650052428,9.887673498,
10.09459536,1.247258782,8.944371223,1.5011971,9.154836087,
10.0971014,-0.6511468887,8.494221687,1.316650629,8.620287885,
10.09960745,-2.109273195,8.38175869,-0.7181459069,8.672868366,
10.10211349,-2.702992201,9.669695854,-4.271188259,10.91110599,
10.10461953,-2.061416626,11.98714447,-10.0145607,15.75539581,
10.10712557,-0.8763712645,13.67976665,-15.45643806,20.65927201,
10.10963161,0.5841478109,14.45324707,-17.98445511,23.07982247,
10.11213765,2.104487419,14.81695557,-17.51037788,23.03441714,
10.1146437,3.397209883,15.18335724,-14.92971802,21.56320598,
10.11714974,4.388436794,15.30060482,-11.24267673,19.48755155,
10.11965578,5.092225552,14.7643137,-7.16321373,17.18218121,
10.12216182,5.678766251,13.6606245,-4.038785458,15.33534597,
10.12466786,6.380162239,12.40379429,-2.702992201,14.2079819,
10.1271739,7.225427151,11.50857925,-3.107678413,13.93957887,
10.12967995,8.314759254,11.21635628,-4.575077057,14.69262399,
10.13218599,9.62901783,11.58036423,-6.454638958,16.38551751,
10.13469203,10.96750259,12.46122169,-8.245368004,18.53521656,
10.13719807,12.27218914,13.69412422,-9.676874161,20.77925788,
10.13970411,13.45484161,15.07807255,-10.60110188,22.82026283,
10.14221021,14.44606876,16.51914978,-10.9746809,24.53599057,
10.14471625,15.11875057,17.79781532,-10.61067295,25.65005321,
10.14722229,15.29581928,18.8368988,-9.535696983,26.07144724,
10.14972833,14.89861107,19.65315056,-8.060821533,25.94593961,
10.15223437,13.90738392,20.01237297,-6.610172749,25.25083728,
10.15474042,12.60718441,20.08894157,-5.403591633,24.32499691,
10.15724646,11.05364418,19.96212196,-4.486542225,23.25507308,
10.1597525,9.454340935,19.87328911,-3.744468451,22.32382643,
10.16225854,7.895716667,19.80389786,-3.057130098,21.53793761,
10.16476458,6.437590122,19.75364876,-2.427518606,20.91750588,
10.16727062,5.1233325,19.82782555,-1.8840487,20.56552555,
10.16977666,3.89043045,19.80628967,-1.48444736,20.23927231,
10.17228271,2.796312332,19.72732735,-1.213759303,19.96146334,
10.17478875,1.821835399,19.54307938,-0.9122636318,19.64900152,
10.17729479,0.9529415965,19.33221245,-0.6104688644,19.3653094,
10.17980083,0.2033899277,19.10250092,-0.4429712892,19.10871875,
10.18230687,-0.4214358926,18.91586113,-0.4525425732,18.92596643,
10.18481292,-1.02711916,18.62124443,-0.4668995142,18.65539367,
10.18731896,-1.594517231,18.21655846,-0.6559324861,18.29797078,
10.189825,-1.992024899,17.80260086,-0.8691928387,17.93477786,
10.19233104,-2.214557409,17.44098473,-0.8763712645,17.60284748,
10.19483713,-2.267199516,17.09133339,-0.5338985324,17.24931646,
10.19734318,-2.178664923,16.67976761,0.0382851623,16.821495,
10.19984922,-1.960619092,16.17697716,0.7444669604,16.31235263,
10.20235526,-1.575374603,15.62632847,1.350150228,15.76346574,
10.2048613,-0.950548768,15.10678673,1.570588946,15.21792686,
10.20736734,-0.1770688742,14.67817211,1.204187989,14.7285491,
10.20987338,0.5673980713,14.33360577,0.4334000051,14.3513773,
10.21237942,1.182652593,14.08684635,-0.5769693851,14.14817306,
10.21488547,1.58016026,13.89063454,-1.673480392,14.08002738,
10.21739151,1.699801445,13.63908863,-2.477767944,13.96615185,
10.21989755,1.58016026,13.36391449,-2.676671267,13.72062994,
10.22240359,1.333400369,13.2275238,-2.300698996,13.49216656,
10.22490963,0.9337990284,13.00229931,-1.960619092,13.18240476,
10.22741568,0.3951148391,12.64576817,-2.035095692,12.81456916,
10.22992172,-0.1722832322,12.17169094,-2.528316259,12.43270385,
10.23242776,-0.7468597889,11.8220396,-3.215355396,12.27423848,
10.2349338,-1.230509043,11.92014503,-4.108177185,12.6681147,
10.23743984,-1.62801671,12.39183044,-5.199902534,13.53687137,
10.23994588,-2.087737799,12.9831562,-6.322734833,14.59102361,
10.24245193,-2.588136673,13.53380489,-7.230212688,15.56079374,
10.24495802,-3.172284603,13.94327641,-7.522137165,16.15737893,
10.24746406,-3.880859137,14.10838127,-7.024429798,16.2311461,
10.2499701,-4.795515537,13.9863472,-5.740979671,15.86107578,
10.25247614,-5.89441967,13.4213419,-3.79471755,15.14187844,
10.25498219,-7.060322285,12.37268734,-1.551446438,14.32963813,
10.25748823,-7.991429329,11.28574753,0.2153540403,13.83030793,
10.25999427,-8.542078018,10.36151981,1.094118118,13.47313194,
10.26250031,-8.796015739,9.593125343,1.285543919,13.07863028,
10.26500635,-8.721838951,9.008976936,1.175474167,12.59420024,
10.26751239,-8.41047287,8.53729248,1.137188911,12.03804865,
10.27001844,-7.993822098,8.11824894,1.292722464,11.46639826,
10.27252448,-7.440781116,7.855038643,1.505982757,10.92404869,
10.27503052,-6.796812534,7.754539967,1.604088426,10.43564327,
10.27753656,-6.227021694,7.847859859,1.687837243,10.15940442,
10.2800426,-5.796014786,8.084749222,1.845763564,10.11749972,
10.28254864,-5.475376606,8.424829483,2.018345833,10.24847407,
10.28505469,-5.226223946,8.798408508,2.099701881,10.44672949,
10.28756073,-5.092225552,9.15733242,2.200200319,10.70646438,
10.29006677,-5.04676199,9.370592117,2.403590441,10.91123505,
10.29257281,-5.085047245,9.439984322,2.679064035,11.05207644,
10.29507885,-5.293222904,9.291629791,3.083451033,11.12925259,
10.29758495,-5.75772953,8.417651176,3.835395575,10.89580469,
10.30009099,-6.488138676,6.622136593,4.622933388,10.35954389,
10.30259703,-6.954739094,5.113760948,4.354937077,9.668734345,
10.30510307,-6.581458569,4.666004181,2.777169704,8.532283602,
10.30760911,-5.276473045,5.434698582,1.12283206,7.6575367,
10.31011515,-3.473780155,7.146463871,0.4621138871,7.959437397,
10.3126212,-1.517946839,9.286844254,0.8353942037,9.447090678,
10.31512724,0.3161516786,11.42213917,1.551446438,11.5313573,
10.31763328,1.907976985,13.31845093,1.972882271,13.59830047,
10.32013932,3.028416157,14.93928909,1.881655931,15.35885061,
10.32264536,3.598206997,16.29183197,1.448554993,16.74721452,
10.3251514,3.684647799,17.35723686,0.818644464,17.76289615,
10.32765745,3.361317635,18.17827415,0.1531406492,18.48706465,
10.33016349,2.784348249,18.76481438,-0.4142574072,18.97478493,
10.33266953,2.152343988,19.21496391,-0.8811569214,19.35520241,
10.33517557,1.601695657,19.62922096,-1.244866014,19.73376386,
10.33768161,1.223330617,20.01715851,-1.561017632,20.11516713,
10.34018765,0.8931210637,20.3928318,-1.893620014,20.50002563,
10.34269375,0.5458626747,20.72812462,-2.403590441,20.87415539,
10.34519979,0.1770688742,21.07299042,-3.196212769,21.31473797,
10.34770583,-0.2632105052,21.48216438,-4.228117466,21.89588189,
10.35021187,-0.7468597889,22.04716873,-5.396413326,22.71027797,
10.35271792,-1.302293777,22.73211479,-6.681957245,23.72959259,
10.35522396,-1.910369754,23.48375893,-8.027321815,24.8912503,
10.35773,-2.55942297,24.15404892,-9.375378609,26.03586851,
10.36023604,-3.227319479,24.48455811,-10.72792149,26.92577717,
10.36274208,-3.883252144,24.28086853,-12.05414295,27.38507963,
10.36524812,-4.520041943,23.46461678,-13.27538013,27.33596052,
10.36775417,-5.135296345,22.11177444,-14.23759365,26.7957256,
10.37026021,-5.786443233,20.40479469,-14.74995708,25.83408225,
10.37276625,-6.454638958,18.59013748,-14.6709938,24.54574576,
10.37527229,-7.132106781,16.90230179,-13.9552412,23.05002191,
10.37777833,-7.785646915,15.48754501,-12.61914825,21.44115788,
10.38028437,-8.324331284,14.42692566,-10.804492,19.85365766,
10.38279042,-8.66650486,13.7108736,-8.738588333,18.42442095,
10.38529646,-8.6593256,13.20598793,-6.638886452,17.13058231,
10.3878025,-8.084749222,12.8754797,-4.744967461,15.92657727,
10.39030859,-6.897311211,12.65055466,-3.2895329,14.77939315,
10.39281463,-5.50169754,12.56172085,-2.298306227,13.904953,
10.39532068,-4.103391647,12.52822113,-1.781157374,13.30288199,
10.39782672,-2.722134829,12.47318649,-1.66151619,12.8744334,
10.40033276,-1.450947881,12.44207954,-1.7883358,12.65340816,
10.4028388,-0.2584248483,12.37029457,-1.946262121,12.52513103,
10.40534484,0.8500502706,12.23151112,-2.140379906,12.44643225,
10.40785088,1.93190515,11.99193001,-2.40598321,12.38254409,
10.41035692,2.961417198,11.61147118,-2.729313374,12.29005314,
10.41286297,3.998107433,11.09192944,-3.186641455,12.21353534,
10.41536901,5.025226593,10.53649521,-3.708575964,12.24843538,
10.41787505,6.081059456,10.02891827,-4.256831646,12.47714316,
10.42038109,7.194320202,9.612267494,-4.946263313,12.98535522,
10.42288713,8.231010437,9.25783062,-5.650052547,13.61543442,
10.42539318,9.2362957,8.999405861,-6.339484692,14.36967398,
10.42789922,10.1772728,8.776873589,-7.091429234,15.19535324,
10.43040526,11.01775169,8.542078018,-7.802396297,15.97608642,
10.4329113,11.80528927,8.348258972,-8.472685814,16.75842139,
10.43541734,12.57368469,8.190332413,-9.193224907,17.59813842,
10.43792338,13.26820183,8.003393173,-9.870991707,18.37215173,
10.44042943,13.86909962,7.792825222,-10.4790678,19.04969583,
10.44293552,14.50828171,7.646862984,-11.05364418,19.7774569,
10.44544156,15.01107407,7.502994537,-10.94088268,20.03322704,
10.4479476,15.47318745,7.337889671,-10.41924667,20.04556948,
10.45045364,15.92303848,7.144071102,-9.973882675,20.10122489,
10.45295969,16.15065575,6.83509779,-9.554840088,19.97140986,
10.45546573,16.09083557,6.451947212,-8.953942299,19.51193724,
10.45797177,15.77229023,5.978168488,-8.082356453,18.70369277,
10.46047781,15.22403526,5.477769375,-7.007380962,17.63180634,
10.46298385,14.58724499,4.900799751,-5.798407555,16.44466736,
10.46548989,13.98873997,4.445864677,-4.61814785,15.38758747,
10.46799594,13.37587833,3.990929127,-3.5766716,14.40951825,
10.47050198,12.72473145,3.538386583,-2.805883646,13.50229436,
10.47300802,12.10469151,3.136392355,-2.377269268,12.72839042,
10.47551406,11.55165005,2.829811811,-2.271985054,12.10827691,
10.4780201,11.06321526,2.549851656,-2.43708992,11.6118854,
10.48052614,10.68006516,2.35812664,-2.805883646,11.29148068,
10.48303219,10.50778198,2.350948334,-3.490530014,11.31919785,
10.48553823,10.37109184,2.398804665,-4.299902439,11.4805475,
10.48804432,10.17488003,2.449054003,-5.082654476,11.63440697,
10.49055036,9.959526062,2.520838737,-5.745765209,11.77117688,
10.4930564,9.75583744,2.695813894,-6.356234074,11.95179854,
10.49556245,9.495018959,2.959024191,-6.746563435,12.01779212,
10.49806849,9.159725189,3.287140131,-6.859025955,11.90596879,
10.50057453,8.793622971,3.54556489,-6.674778938,11.59532273,
10.50308057,8.391329765,3.64127779,-6.262914181,11.08591057,
10.50558661,8.020143509,3.538386583,-5.760122299,10.48913201,
10.50809265,7.761718273,3.366103172,-5.240580559,9.951814192,
10.5105987,7.613363266,3.200998545,-4.797908306,9.551419581,
10.51310474,7.594220638,3.00688076,-4.457828522,9.305146648,
10.51561078,7.725826263,2.966202736,-4.005286217,9.193969099,
10.51811682,8.01775074,3.153141975,-3.571886063,9.326575003,
10.52062286,8.391329765,3.492922783,-3.318246841,9.676036735,
10.5231289,8.851051331,3.921537161,-3.401995659,10.26124446,
10.52563495,9.277272224,4.249652863,-3.734897137,10.86631428,
10.52814099,9.67926693,4.532006264,-4.141676903,11.46214538,
10.53064703,10.06002426,4.795515537,-4.572684288,12.04618193,
10.53315312,10.40728283,5.008476734,-5.063511848,12.61092888,
10.53565916,10.73270702,5.132903576,-5.563910961,13.13372774,
10.53816521,11.02253723,5.185545921,-5.892026424,13.53152574,
10.54067125,11.27856922,5.192724228,-5.999703884,13.79010353,
10.54317729,11.51815128,5.219045162,-5.870192051,13.94149906,
10.54568333,11.72393322,5.192724228,-5.47298336,13.94161188,
10.54818937,11.93689442,5.195116997,-4.855336189,13.89435059,
10.55069542,12.16451168,5.171188831,-4.069892406,13.83042163,
10.55320146,12.40857983,5.070690155,-3.153141975,13.77051402,
10.5557075,12.64816093,4.886443138,-2.219342947,13.73967921,
10.55821354,12.76540947,4.60379076,-1.342971683,13.63650033,
10.56071958,12.77019501,4.287938118,-0.5937191248,13.48394587,
10.56322562,12.73190975,4.079463482,-0.03589234129,13.36954885,
10.56573167,12.73669624,4.031607151,0.3065803945,13.3630565,
10.56823771,12.84437275,4.1129632,0.4549354017,13.49449309,
10.57074375,12.9759779,4.328616142,0.323330164,13.68274324,
10.57324979,13.09801197,4.52482748,-0.1507478207,13.85838036,
10.57575583,13.14826107,4.637290478,-0.8500502706,13.96795682,
10.57826193,13.11954784,4.730610371,-1.726122379,14.05278295,
10.58076797,13.03101349,4.86730051,-2.707777977,14.17144976,
10.58327401,12.9257288,5.082654476,-3.660719633,14.36345048,
10.58578005,12.75344563,5.346164227,-4.481756687,14.5367806,
10.58828609,12.56411362,5.669195175,-5.147260666,14.71363372,
10.59079213,12.38943768,6.026024818,-5.776872158,14.93932371,
10.59329818,12.16451168,6.413661957,-6.315556049,15.13263534,
10.59580422,11.89861012,6.777669907,-6.815955162,15.29610986,
10.59831026,11.5325079,7.110571384,-7.316354275,15.39766228,
10.6008163,11.11346436,7.443173885,-7.723433495,15.44543144,
10.60332234,10.66570759,7.776075363,-7.965108395,15.4164723,
10.60582838,10.19402313,8.111070633,-8.005785942,15.29052592,
10.60833442,9.684052467,8.451150894,-7.852645874,15.06210048,
10.61084047,9.229117393,8.743373871,-7.599006653,14.8110802,
10.61334651,8.87258625,8.939585686,-7.278069019,14.54679579,
10.61585255,8.589934349,9.018548965,-6.940382004,14.25798373,
10.61835859,8.369794846,8.98026371,-6.634100914,13.95384882,
10.62086463,8.27408123,8.853444099,-6.315556049,13.66492374,
10.62337068,8.283653259,8.652147293,-5.985346794,13.39040479,
10.62587677,8.405686378,8.343473434,-5.726622581,13.15535323,
10.62838281,8.640183449,7.893323898,-5.494519234,12.92853719,
10.63088885,8.915657043,7.266105175,-5.276473045,12.65410577,
10.63339489,9.188439369,6.435197353,-4.994120121,12.27926784,
10.63590094,9.399306297,5.432305813,-4.541577339,11.76787279,
10.63840698,9.535696983,4.304687977,-3.902394533,11.16640222,
10.64091302,9.614660263,3.090928555,-3.126821041,10.57225336,
10.64341906,9.700801849,1.917548299,-2.24566412,10.14029365,
10.6459251,9.734301567,0.8162516356,-1.295115232,9.853944246,
10.64843114,9.746265411,-0.1651047617,-0.3424727321,9.753678107,
10.65093719,9.724730492,-0.9625129104,0.5267201066,9.786431848,
10.65344323,9.691230774,-1.594517231,1.275972724,9.904067119,
10.65594927,9.688838005,-2.054238319,1.857727647,10.0769355,
10.65845531,9.753444672,-2.348555326,2.23130703,10.27735988,
10.66096135,10.00020409,-2.429911375,2.288734913,10.54262105,
10.66346739,10.48146057,-2.015953064,1.833799481,10.82995397,
10.66597344,11.05603695,-0.8353942037,0.8763712645,11.12213393,
10.66847948,11.44367409,0.5267201066,-0.6056832075,11.47178987,
10.67098557,11.61625671,1.7883358,-2.597707987,12.03676251,
10.67349161,11.57318592,2.348555326,-4.493721008,12.63518393,
10.67599765,11.41735363,1.987239242,-6.217450619,13.1514933,
10.6785037,11.54207897,1.896012783,-8.324331284,14.35649479,
10.68100974,11.69761276,2.130808592,-10.45274639,15.83143698,
10.68351578,11.582757,2.300698996,-11.7717905,16.67418745,
10.68602182,11.30489063,2.535494804,-12.22433281,16.84231572,
10.68852786,10.80688477,2.84656167,-12.28893852,16.61052924,
10.6910339,10.0839529,3.660719633,-12.63619709,16.57589971,
10.69353995,8.853444099,4.651647091,-12.85872936,16.29012627,
10.69604599,7.847859859,5.489733219,-12.6000061,15.82675674,
10.69855203,8.283653259,7.962715626,-12.28654575,16.82209731,
10.70105807,10.0265255,13.76381493,-14.11795235,22.11990943,
10.70356411,12.24108219,22.54039001,-19.24846268,32.06893498,
10.70607015,14.20409393,32.65544891,-24.23301315,43.07404735,
10.7085762,15.46840191,41.07070541,-25.60738945,50.81154097,
10.71108229,16.38275909,44.02494431,-22.84936333,52.23680619,
10.71358833,17.26630974,39.44747543,-18.13759613,46.72473824,
10.71609437,17.64916039,31.16651535,-9.284450531,37.00061571,
10.71860042,16.78744507,22.81586266,6.334698677,29.02602811,
10.72110646,16.69651794,14.9656105,22.5643177,31.8102443,
10.7236125,19.50240135,8.108677864,30.06282616,36.74054752,
10.72611854,23.0096817,3.16032052,30.75943565,38.54317008,
10.72862458,24.9801712,-1.460519075,24.97538567,35.35409394,
10.73113062,25.71745872,-4.225724697,17.70210266,31.50569585,
10.73363666,25.82752991,-5.202295303,12.37747288,29.10888202,
10.73614271,24.34547424,-8.226224899,5.659623623,26.31357505,
10.73864875,21.89402771,-11.15174961,-2.930310488,24.74462948,
10.74115479,18.79861259,-13.2705946,-9.154939651,24.76508503,
10.74366083,15.32692623,-15.69093418,-12.13340569,25.06670335,
10.74616687,11.91775227,-17.53191185,-12.94726467,24.84013717,
10.74867292,9.487840652,-18.24557114,-13.0453701,24.35367872,
10.75117901,8.094321251,-17.67817307,-14.53938866,24.27817254,
10.75368505,7.531708241,-16.16262054,-18.12563133,25.42627466,
10.75619109,8.134998322,-13.70608807,-23.07428741,28.04385472,
10.75869713,9.851848602,-10.45274639,-28.15694237,31.609053,
10.76120318,12.32004547,-6.404090881,-31.90141106,34.79218199,
10.76370922,15.62632847,-1.46769762,-33.96043396,37.41186112,
10.76621526,19.32264137,3.80907464,-33.52224731,38.87948796,
10.7687213,23.17478561,9.140582085,-30.34039307,39.25761557,
10.77122734,27.06521606,14.01027584,-24.65684128,39.20170368,
10.77373338,30.21596527,17.56541252,-16.32772446,38.57645474,
10.77623942,32.03779984,19.84936142,-5.805585861,38.13295942,
10.77874547,31.80569839,21.00329971,4.781158924,38.41354618,
10.78125151,29.45205688,21.02483559,13.30409431,38.55471815,
10.78375755,25.7007103,19.44736671,17.58694649,36.71549085,
10.78626359,21.604496,16.40190125,16.6534481,31.82945092,
10.78876963,18.08973885,12.48754311,11.84357452,24.96893353,
10.79127568,15.63589954,8.743373871,4.687539577,18.51758538,
10.79378172,14.20170116,5.798407555,-3.035594702,15.63728497,
10.79628776,13.73480225,4.14646244,-10.62742233,17.85441259,
10.79879385,13.86909962,3.595814228,-16.73719597,22.03214772,
10.80129989,14.1682024,3.993321896,-21.18066788,25.79351218,
10.80380594,14.34796238,4.941477776,-22.74647141,27.34381445,
10.80631198,14.09163189,6.667600155,-21.66192436,26.68838602,
10.80881802,13.14108276,8.415258408,-17.82174301,23.68795378,
10.81132406,11.54207897,9.916455269,-12.30568886,19.57001917,
10.8138301,9.320343018,11.08475113,-6.152844429,15.73524694,
10.81633614,6.634100914,12.0350008,0.4381856322,13.74934711,
10.81884219,3.916751623,12.81087303,4.840979099,14.24410368,
10.82134823,1.45334065,12.66491127,5.874977589,14.03664982,
10.82385427,-0.2994019389,11.9847517,3.401995659,12.46184133,
10.82636031,-1.110867858,11.3072834,-1.833799481,11.50875779,
10.82886635,-1.005583763,10.92891788,-7.716254711,13.41614817,
10.83137239,-0.004785645287,11.36710358,-12.60718441,16.97504537,
10.83387844,1.726122379,12.2482605,-17.10808372,21.11127453,
10.83638448,3.423531055,13.25384426,-20.51277161,24.66087491,
10.83889052,4.639683247,14.03899002,-21.27398872,25.90757607,
10.84139661,5.702694416,14.58724499,-19.55982971,25.05784065,
10.84390265,6.571887493,14.85524082,-16.40668678,23.08781619,
10.8464087,7.045965195,14.71167183,-12.23868942,20.39275441,
10.84891474,7.256533623,14.41735458,-7.661220074,17.8664962,
10.85142078,7.471887589,14.20888042,-3.722932816,16.47973349,
10.85392682,7.804789066,14.19452286,-1.338186026,16.25392117,
10.85643286,8.28126049,14.50828171,-0.9170492887,16.73052578,
10.8589389,8.896514893,15.12353611,-2.137987137,17.67598118,
10.86144495,9.60030365,16.10279846,-4.230510235,19.2188232,
10.86395099,10.28973579,17.34048653,-6.363412857,21.14389176,
10.86645703,10.93131161,18.6930294,-7.984251022,23.07967041,
10.86896307,11.47717381,19.95733643,-8.819944382,24.65384787,
10.87146911,11.82443237,20.95783615,-8.851051331,25.63960231,
10.87397515,12.01825047,21.5850544,-8.180761337,26.02456097,
10.8764812,11.98953724,21.92274284,-6.954739094,25.93692451,
10.87898724,11.48913765,21.81267166,-5.195116997,25.1948838,
10.88149333,10.69681454,21.38644981,-3.189034462,24.1240962,
10.88399937,9.707980156,20.78315926,-1.189831018,22.96955126,
10.88650542,8.606683731,20.12722778,0.4357928336,21.89452485,
10.88901146,7.555636406,19.54068756,1.477268934,21.00258164,
10.8915175,6.567101955,19.04746628,1.929512382,20.23995597,
10.89402354,5.702694416,18.70260048,1.888834357,19.64371868,
10.89652958,4.96779871,18.59492302,1.64476645,19.31723176,
10.89903562,4.280759811,18.64995956,1.393221021,19.18559254,
10.90154166,3.607778311,18.79113579,1.029511929,19.16201303,
10.90404771,3.014059305,18.89432526,0.375972271,19.13691291,
10.90655375,2.499303341,18.85843277,-0.4094717801,19.02773425,
10.90905979,2.114058733,18.76242065,-1.005583763,18.90790501,
10.91156583,1.800299883,18.64517403,-1.407876968,18.78472017,
10.91407187,1.479661703,18.34367752,-1.604088426,18.47303449,
10.91657792,1.213759303,18.06820297,-1.673480392,18.18608553,
10.91908396,0.9840483069,17.8073864,-1.48444736,17.89622713,
10.92159,0.6343970895,17.42902184,-0.8401798606,17.46078933,
10.92409604,0.2201396823,16.89990807,0.07178468257,16.90149423,
10.92660213,-0.1746760458,16.25833321,0.8739784956,16.2827439,
10.92910818,-0.5913262963,15.49233055,1.261615753,15.55485927,
10.93161422,-1.019940615,14.6016016,1.055832982,14.67521146,
10.93412026,-1.31425786,13.85713482,0.2970091105,13.92248805,
10.9366263,-1.553839207,13.28973675,-0.684646368,13.3977707,
10.93913234,-1.809871197,12.90897942,-1.671087503,13.1419145,
10.94163838,-2.106880426,12.75105286,-2.839383125,13.23217256,
10.94414443,-2.439482689,12.8252306,-3.931108475,13.6341934,
10.94665047,-2.714956284,13.24666595,-4.249652863,14.17408537,
10.94915651,-3.076272726,13.74945831,-3.677469254,14.56141607,
10.95166255,-3.646063566,14.09641743,-2.698206663,14.80820999,
10.95416859,-4.350151539,14.08445358,-1.793121457,14.84961062,
10.95667463,-5.09461832,13.68694592,-1.216152072,14.65491898,
10.95918068,-5.80797863,13.05733395,-0.8835497499,14.31807409,
10.96168672,-6.351448536,12.46840096,-0.6750751138,14.00919867,
10.96419276,-6.672386169,12.11665535,-0.660718143,13.84812704,
10.9666988,-6.842276573,11.9656086,-1.034297585,13.82252905,
10.96920484,-6.969096184,11.85793209,-1.718943954,13.86122734,
10.97171088,-7.203891754,11.63061333,-2.157129526,13.84992529,
10.97421698,-7.692326546,11.05603695,-1.721336842,13.57832247,
10.97672302,-8.28126049,10.16530895,-0.4453641176,13.11911318,
10.97922906,-8.779266357,9.154939651,1.208973646,12.7416661,
10.9817351,-8.949156761,8.11824894,2.731706142,12.38771936,
10.98424114,-8.568398476,7.24217701,3.902394533,11.87835272,
10.98674719,-7.68275547,6.662814617,4.587040901,11.15610929,
10.98925323,-6.478567123,6.562315941,4.826622486,10.40827109,
10.99175927,-5.204688549,6.703492641,4.817050934,9.758564248,
10.99426531,-3.967000723,6.839883327,4.848157883,9.27500585,
10.99677135,-2.777169704,6.820741177,4.764110088,8.771084693,
10.99927739,-1.728515267,6.787241459,4.340580463,8.23984529,
11.00178344,-0.8907282352,6.866204739,3.461816072,7.740951803,
11.00428948,-0.3544368446,6.935596466,2.334198475,7.326432033,
11.00679552,-0.1962114573,7.004988194,1.156331539,7.102496825,
11.00930156,-0.3927220106,7.172784805,0.2368894368,7.187432716,
11.0118076,-0.8955138922,7.48385191,-0.4501497746,7.550670126,
11.01431364,-1.769193292,7.878966808,-0.9720842242,8.133456252,
11.01681974,-3.033201694,8.283653259,-1.347757339,8.923882209,
11.01932578,-4.577469826,8.336295128,-1.366899967,9.608093567,
11.02183182,-6.40648365,7.625327587,-1.213759303,10.03303868,
11.02433786,-7.867002487,6.540780544,-1.5011971,10.34046087,
11.0268439,-8.705088615,5.834300041,-2.233700037,10.71480474,
11.02934995,-8.831908226,5.992525101,-2.844168901,11.04546317,
11.03185599,-8.290831566,6.894918442,-2.449054003,11.05783224,
11.03436203,-7.120142937,8.185546875,-0.818644464,10.87978823,
11.03686807,-5.50169754,9.552447319,1.287936807,11.09850021,
11.03937411,-3.885644913,10.83799076,3.112463951,11.92676452,
11.04188015,-2.48733902,11.97039413,4.213760853,12.93185879,
11.0443862,-1.41984117,12.94247818,4.517649174,13.78161255,
11.04689224,-0.6487540603,13.73001671,4.134498596,14.35368661,
11.04939828,-0.1100698411,14.34317684,3.284747362,14.71490409,
11.05190432,0.2273181528,14.80020618,2.271985054,14.97530276,
11.05441036,0.4477569461,15.12832165,1.37886405,15.19762706,
11.0569164,0.5913262963,15.34606934,0.8114659786,15.37888123,
11.0594225,0.6583253145,15.44925976,0.579362154,15.47412937,
11.06192854,0.6942176819,15.41067505,0.6487540603,15.4399393,
11.06443458,0.7085745931,15.26949883,0.8979067206,15.31227967,
11.06694062,0.6990033388,15.03500175,1.15393877,15.09541182,
11.06944667,0.7205387354,14.71645737,1.223330617,14.78478378,
11.07195271,0.7707880139,14.41017628,1.022333503,14.46694371,
11.07445875,0.8715856671,14.18734455,0.4166502357,14.22019706,
11.07696479,1.007976532,14.16580868,-0.5745765567,14.21324349,
11.07947083,1.07497561,14.41017628,-1.800299883,14.56193094,
11.08197687,1.039083242,14.9656105,-3.047558784,15.30806344,
11.08448292,0.8452646136,15.8368969,-4.240081787,16.41645727,
11.08698896,0.4860421121,17.11556053,-5.372485161,17.94553555,
11.089495,-0.05024927482,18.85125542,-6.432804585,19.91866789,
11.09200104,-0.7181459069,21.13998985,-7.450352192,22.42593704,
11.09450708,-1.513161182,23.84746933,-8.467900276,25.35146515,
11.09701312,-2.370090723,26.4738903,-9.475876808,28.2183706,
11.09951922,-3.205784082,28.26940536,-10.69442177,30.39419333,
11.10202526,-3.916751623,28.45155907,-12.24347496,31.22074368,
11.1045313,-4.472185612,26.72304344,-13.90977669,30.45658192,
11.10703734,-4.872086048,23.52443695,-15.29821205,28.48107527,
11.10954338,-5.235795021,19.77997017,-15.93978786,25.93718579,
11.11204942,-5.554339409,16.34926033,-15.56890011,23.2495086,
11.11455547,-5.908776283,13.69890976,-14.20888042,20.60257384,
11.11706151,-6.231807709,11.94646645,-12.0350008,18.06639787,
11.11956755,-6.372983932,11.00100231,-9.420842171,15.82369247,
11.12207359,-6.064310074,10.68245792,-6.708278179,13.99613376,
11.12457963,-5.099404335,10.7925272,-4.211368084,12.65773238,
11.12708568,-3.818645954,11.21157074,-2.248056889,12.05550228,
11.12959172,-2.46819663,11.75743294,-0.9696913958,12.05278081,
11.13209776,-1.158724308,12.37508011,-0.3807578981,12.43504026,
11.1346038,0.1268195957,12.99990654,-0.399900496,13.0066742,
11.13710984,1.328614831,13.52184105,-0.8644071817,13.61442626,
11.13961588,2.37248373,13.83081436,-1.563410521,14.11964438,
11.14212198,3.253640652,13.81406403,-2.329412937,14.38195769,
11.14462802,3.962215185,13.48834133,-3.081058264,14.39192208,
11.14713406,4.493721008,12.93529987,-3.833002806,14.21996561,
11.1496401,4.943870544,12.18365479,-4.575077057,13.92173229,
11.15214614,5.286044121,11.34556866,-5.336592674,13.60674142,
11.15465219,5.56630373,10.54845905,-6.042774677,13.37044694,
11.15715823,5.853442192,9.868598938,-6.701099873,13.28746665,
11.15966427,6.207879066,9.298808098,-7.488637447,13.45679328,
11.16217031,6.689135551,8.927620888,-8.27408123,13.88910974,
11.16467635,7.223034382,8.671290398,-8.817551613,14.32175685,
11.16718239,7.697112083,8.420043945,-9.164510727,14.63321329,
11.16968844,8.22383213,8.187939644,-9.562018394,15.03682035,
11.17219448,8.755337715,7.91007328,-9.954740524,15.43768301,
11.17470052,9.260522842,7.548458099,-10.23709393,15.73323219,
11.17720656,9.734301567,7.158428192,-10.29212856,15.87222831,
11.1797126,10.26102161,6.777669907,-10.08156013,15.90167377,
11.1822187,10.95314598,6.432804585,-9.770194054,16.0252636,
11.18472474,11.74546909,6.155237198,-9.449555397,16.28303063,
11.18723078,12.549757,5.863013744,-9.169296265,16.61166232,
11.18973682,13.2705946,5.56630373,-8.886942863,16.91360907,
11.19224286,13.86431313,5.305186749,-8.573184013,17.14245225,
11.1947489,14.34317684,5.1233325,-8.257331848,17.32509126,
11.19725495,14.68535042,5.006083965,-7.950751305,17.43372708,
11.19976099,14.83609867,4.884049892,-7.65404129,17.39391029,
11.20226703,14.77867126,4.709074974,-7.301997185,17.14361906,
11.20477307,14.55853081,4.565505505,-6.880561352,16.73728724,
11.20727911,14.16341591,4.455435753,-6.488138676,16.20337006,
11.20978515,13.66301727,4.328616142,-6.171987057,15.60475514,
11.2122912,13.06211948,4.127319813,-5.951847076,14.93580322,
11.21479724,12.4301157,3.926322937,-5.829514027,14.2796016,
11.21730328,11.7526474,3.708575964,-5.853442192,13.64335157,
11.21980937,11.07757282,3.567100286,-5.877370834,13.03764979,
11.22231542,10.50538826,3.535993576,-6.002096653,12.60522103,
11.22482146,10.0145607,3.514458179,-6.162415504,12.27266096,
11.2273275,9.62183857,3.483351469,-6.253343105,11.99240655,
11.22983354,9.31555748,3.478565931,-6.114559174,11.6733828,
11.23233958,9.032905579,3.413959742,-5.819942951,11.27476121,
11.23484562,8.867800713,3.337389469,-5.427519798,10.91943355,
11.23735166,8.84387207,3.244069338,-4.941477776,10.6374932,
11.23985771,9.025727272,3.229712248,-4.378865242,10.53893993,
11.24236375,9.408877373,3.337389469,-3.945465326,10.73460938,
11.24486979,9.952347755,3.492922783,-3.732504129,11.18844594,
11.24737583,10.56760216,3.543172121,-3.701397419,11.74430189,
11.24988187,11.17567825,3.540779352,-3.782753468,12.31836542,
11.25238792,11.84118176,3.651148319,-3.95503664,13.00718202,
11.25489396,12.44207954,3.835395575,-4.259224415,13.69878079,
11.2574,13.02861977,4.139284134,-4.649254322,14.43932727,
11.25990604,13.44527054,4.345366001,-5.195116997,15.05479147,
11.26241208,13.73240948,4.366901398,-5.769693375,15.52218604,
11.26491818,13.96002674,4.299902439,-6.217450619,15.87539605,
11.26742422,14.15863037,4.247260094,-6.559923172,16.17215583,
11.26993026,14.22323704,4.182354927,-6.602993965,16.22935901,
11.2724363,14.12752438,4.17517662,-6.344270229,16.03960129,
11.27494234,13.87867069,4.153641224,-5.834300041,15.61759561,
11.27744838,13.51226902,4.105784416,-5.135296345,15.02698068,
11.27995443,13.14347553,4.036392689,-4.323830605,14.41315115,
11.28246047,12.8252306,3.940679789,-3.535993576,13.87511253,
11.28496651,12.55932808,3.797110319,-2.858525753,13.42854937,
11.28747255,12.29372501,3.595814228,-2.377269268,13.02754635,
11.28997859,11.97517967,3.421138287,-2.109273195,12.63163286,
11.29248463,11.54447174,3.342175007,-2.032702923,12.18921009,
11.29499068,11.02493,3.382853031,-1.955833435,11.69692526,
11.29749672,10.53410244,3.473780155,-1.802692771,11.2376227,
11.30000276,10.13898754,3.602992773,-1.544267893,10.87039045,
11.3025088,9.878170013,3.730111361,-1.216152072,10.62878165,
11.30501489,9.746265411,3.885644913,-0.8715856671,10.52841809,
11.30752094,9.751050949,4.038785458,-0.5913262963,10.57092472,
11.31002698,9.842277527,4.228117466,-0.4597210586,10.72188172,
11.31253302,10.04566765,4.443471432,-0.4956133962,10.99570414,
11.31503906,10.32802105,4.65403986,-0.7468597889,11.35279284,
11.3175451,10.61785126,4.876871586,-1.230509043,11.74890609,
11.32005114,10.83081245,5.041976452,-1.929512382,12.10169587,
11.32255719,10.93370438,5.164010525,-2.793919563,12.41043442,
11.32506323,10.88824081,5.314758301,-3.694219112,12.66679512,
11.32756927,10.64656544,5.477769375,-4.520041943,12.79789405,
11.33007531,10.27298546,5.767300606,-5.168796062,12.86516379,
11.33258135,9.77737236,6.167201042,-5.597410202,12.84376814,
11.33508739,9.233902931,6.679564476,-5.88694191,12.82722222,
11.33759344,8.779266357,7.337889671,-6.138487339,12.9846513,
11.34009948,8.463114738,8.140083313,-6.380162239,13.36382197,
11.34260552,8.300402641,9.075976372,-6.684350014,13.9982344,
11.34511161,8.254939079,10.03609657,-7.060322285,14.78902987,
11.34761765,8.374580383,11.03450203,-7.498209,15.75172911,
11.3501237,8.640183449,12.04696465,-7.950751305,16.822502,
11.35262974,9.040083885,12.91137218,-8.286046028,17.80688651,
11.35513578,9.540482521,13.51466274,-8.518149376,18.60714337,
11.35764182,10.06959629,13.78774357,-8.66650486,19.14698276,
11.36014786,10.64895821,13.68694592,-8.815158844,19.45352988,
11.3626539,11.26421261,13.25384426,-8.930013657,19.55228931,
11.36515995,11.89143085,12.55214977,-8.987442017,19.48683416,
11.36766599,12.51625729,11.62582779,-9.011369705,19.3137607,
11.37017203,13.13868999,10.48624611,-8.898907661,19.02043874,
11.37267807,13.69890976,9.164510727,-8.546863556,18.5660244,
11.37518411,14.15145206,7.673183918,-7.716254711,17.85166473,
11.37769015,14.56810284,5.975775242,-6.32752037,16.9698858,
11.3801962,14.86720562,4.191926003,-4.517649174,16.09394919,
11.38270229,15.04457283,2.355733871,-2.496910334,15.43124152,
11.38520833,15.04218006,0.5578267574,-0.4357928336,15.05882688,
11.38771437,14.69970798,-1.228116274,1.371685624,14.8145606,
11.39022042,14.07009602,-2.990130901,2.667099953,14.62948758,
11.39272646,13.2275238,-4.608576298,3.425923824,14.42023979,
11.3952325,12.29133129,-6.016453266,3.567100286,14.14209105,
11.39773854,11.44367409,-7.127321243,3.061915636,13.82503932,
11.40024458,10.77817059,-7.840681553,1.968096614,13.47288583,
11.40275062,10.35194874,-8.111070633,0.5458626747,13.16245705,
11.40525667,10.31127071,-7.890930653,-1.022333503,13.02437162,
11.40776271,10.64895821,-7.237390995,-2.681456804,13.15181926,
11.41026875,11.27856922,-6.224628925,-4.352544308,13.5976752,
11.41277479,12.11665535,-4.974977493,-5.956633091,14.38906584,
11.41528088,13.08604813,-3.703790426,-7.455138206,15.5094102,
11.41778693,14.05095387,-2.394019127,-8.721838951,16.71020966,
11.42029292,14.53938866,-0.5027918816,-9.087940216,17.15334602,
11.42279901,14.84806252,1.26640141,-8.934800148,17.37525213,
11.42530505,15.22403526,2.738884687,-8.784051895,17.78854426,
11.42781109,15.52582932,3.897608995,-8.472685814,18.11157466,
11.43031713,15.28864098,4.42672205,-8.611469269,18.09684541,
11.43282318,14.38385487,4.323830605,-9.375378609,17.70560691,
11.43532922,12.78455257,4.472185612,-10.77577782,17.30787729,
11.43783526,10.2969141,4.821836948,-12.11904812,16.61769776,
11.4403413,7.926823139,5.597410202,-12.59043407,15.89605474,
11.44284734,7.096214771,9.154939651,-13.27538013,17.61831155,
11.44535338,7.574779034,18.29821396,-16.87119484,26.01613205,
11.44785942,8.350651741,31.81766129,-24.08226395,40.76827677,
11.45036547,8.939585686,46.62265396,-32.13590622,57.3262987,
11.45287151,8.668897629,59.04319763,-36.05265808,69.72118134,
11.45537755,7.601399422,64.49703979,-33.50310516,73.07603897,
11.45788359,6.090631008,59.93392563,-25.77249527,65.52398599,
11.46038969,2.717349291,47.55405807,-1.448554993,47.65365399,
11.46289573,-0.8524430394,30.66133118,32.17419052,44.45247377,
11.46540177,3.583850145,14.42214012,49.76144028,51.93306313,
11.46790781,10.04806042,3.684647799,52.95256805,54.02327842,
11.47041385,14.92971802,-2.50169611,46.60351181,49.00043139,
11.47291989,17.44337845,-7.012166977,33.44807053,38.36945868,
11.47542594,18.17348862,-11.06082249,17.65394592,27.64560163,
11.47793198,19.54786491,-10.55324554,8.429615021,23.76022777,
11.48043802,19.92114639,-11.51815128,-0.4645066857,23.01598681,
11.48294406,18.46571159,-13.5912323,-8.525327682,24.46191555,
11.4854501,15.91107464,-14.39581966,-14.23520088,25.74961872,
11.48795614,12.62393379,-15.08525085,-16.35404587,25.58091699,
11.49046219,9.349057198,-16.77548218,-14.74038601,24.20951574,
11.49296823,6.935596466,-18.89911079,-11.34078312,23.10610848,
11.49547432,5.489733219,-20.42633057,-8.424829483,22.76729898,
11.49798036,5.058726311,-21.08974075,-7.998608112,23.11591678,
11.5004864,5.508875847,-20.66351891,-10.85952663,23.98453763,
11.50299245,7.596613884,-18.56620979,-16.44736481,25.9408654,
11.50549849,11.11825085,-15.10678673,-22.71027946,29.45483493,
11.50800453,15.50668716,-10.5293169,-28.34627342,33.98286448,
11.51051057,20.16312027,-4.96779871,-32.29174042,38.39253759,
11.51301661,24.44388008,1.055832982,-33.92185211,41.82475472,
11.51552265,28.44677353,6.981060028,-33.49114227,44.49281666,
11.5180287,32.42573929,12.45165062,-30.63500977,46.31388555,
11.52053474,36.09812164,16.88555145,-24.69034004,46.88079698,
11.52304078,38.80590057,20.04826546,-15.67657757,46.40674468,
11.52554682,39.97180176,22.40399933,-5.446662426,46.14488328,
11.52805286,39.1053009,23.75414848,3.476173162,45.8864676,
11.5305589,36.69902039,23.48375893,9.454340935,44.58351257,
11.53306495,33.44089127,21.04666901,11.88903809,41.26263093,
11.53557104,30.06761169,17.20409584,10.23948669,36.12325116,
11.53807708,27.01496696,12.70080376,5.556732178,30.36438915,
11.54058312,24.72144699,9.700801849,-0.04785645381,26.55669008,
11.54308917,22.45664024,6.413661957,-6.27966404,24.18408425,
11.54559521,20.06022835,4.58943367,-10.38335514,23.04972292,
11.54810125,17.83131409,3.971786499,-12.49232864,22.13117993,
11.55060729,15.95893097,4.850550652,-13.34955788,21.36412916,
11.55311333,13.9552412,6.658029079,-12.31286716,19.76574831,
11.55561937,11.57079315,8.599505424,-10.26819992,17.69945415,
11.55812542,8.874979019,9.909276962,-7.883752346,15.46326529,
11.56063146,6.090631008,10.61067295,-5.815157413,13.54615157,
11.5631375,3.346960783,11.06560802,-4.625326157,12.45164525,
11.56564354,0.7301099896,11.30489063,-4.393222332,12.15047387,
11.56814958,-1.438983679,11.50110245,-5.568696499,12.85909842,
11.57065562,-2.999702215,11.95125198,-7.864609718,14.61789052,
11.57316166,-4.050749779,13.13629723,-10.69442177,17.41670277,
11.57566776,-4.486542225,14.49871063,-14.14427376,20.74613582,
11.5781738,-4.529613495,15.10678673,-16.82333755,23.05985885,
11.58067984,-4.374079704,16.06690598,-17.51037788,24.16384437,
11.58318588,-4.216153622,17.82174301,-17.39552116,25.25855562,
11.58569192,-4.024428368,19.05464554,-16.57209206,25.57165961,
11.58819797,-3.459423304,19.57658005,-14.8265276,24.79991969,
11.59070401,-2.439482689,19.60289955,-12.24347496,23.24064168,
11.59321005,-1.163509965,19.11207199,-9.188439369,21.23799589,
11.59571609,0.2656033039,18.23570061,-6.320342064,19.30176276,
11.59822213,1.855334878,17.10329819,-4.266402721,17.72476427,
11.60072818,3.490530014,15.92064571,-3.301496983,16.62981185,
11.60323422,5.070690155,14.88186169,-3.311068296,16.06688766,
11.60574026,6.588637352,14.30698586,-3.864109516,16.21824062,
11.6082463,8.012965202,14.30698586,-4.579862595,17.02564527,
11.61075234,9.353842735,14.99910927,-5.276473045,18.44746109,
11.61325844,10.58435154,16.16022682,-5.892026424,20.19647008,
11.61576448,11.60907841,17.38834381,-6.207879066,21.80969886,
11.61827052,12.45165062,18.46331787,-6.030810356,23.07180928,
11.62077656,13.07408428,19.26760674,-5.274080276,23.87442715,
11.6232826,13.28973675,19.55743599,-4.136891365,24.00467195,
11.62578864,12.94008541,19.36361885,-2.97577405,23.4787303,
11.62829469,12.12622738,18.82732582,-2.049452543,22.48808226,
11.63080073,11.06560802,18.12084579,-1.357328653,21.2756921,
11.63330677,9.88534832,17.49123383,-0.7851449251,20.10671094,
11.63581281,8.652147293,17.04826355,-0.1028913707,19.11840813,
11.63831885,7.313961506,16.67498207,0.4764707983,18.21472164,
11.64082489,6.018846035,16.55534172,0.7540382147,17.63163125,
11.64333094,4.821836948,16.65823364,0.8138588071,17.36114126,
11.64583698,3.737289906,17.06262016,0.8018946648,17.48551909,
11.64834307,2.645564556,17.5127697,0.7181459069,17.72602177,
11.65084911,1.616052628,17.95095634,0.4357928336,18.02882068,
11.65335515,0.6272186637,18.30060577,0.05503492057,18.31143369,
11.6558612,-0.2344966233,18.50160408,-0.3161516786,18.50579083,
11.65836724,-0.9936196208,18.49681854,-0.8018946648,18.54083631,
11.66087328,-1.637588024,18.35085678,-1.208973646,18.46340316,
11.66337932,-2.202593327,18.0203476,-1.271187067,18.19890825,
11.66588536,-2.705385208,17.52234077,-0.9122636318,17.75341545,
11.6683914,-3.200998545,16.87119484,-0.3879363835,17.17655675,
11.67089745,-3.595814228,16.13869095,-0.07178468257,16.53458129,
11.67340349,-3.79471755,15.35803318,0.01914258115,15.81990616,
11.67590953,-3.77796793,14.77867126,-0.1292124242,15.25447023,
11.67841557,-3.62452817,14.39821243,-0.5386841893,14.85718366,
11.68092161,-3.485744476,14.10359573,-1.173081279,14.57525118,
11.68342765,-3.361317635,14.08684635,-1.75722909,14.58854175,
11.6859337,-3.248854876,14.28305721,-2.061416626,14.79223512,
11.68843974,-3.205784082,14.52981758,-1.953440547,15.00695107,
11.69094583,-3.35413909,14.69492245,-1.388435364,15.13666897,
11.69345187,-3.66789794,14.66620827,-0.5650052428,15.12846229,
11.69595792,-4.167997837,14.37906933,0.385543555,14.97593017,
11.69846396,-4.756931305,13.81645679,1.086939692,14.65279194,
11.70097,-5.346164227,12.99990654,1.220937729,14.10920731,
11.70347604,-5.812764645,12.15733337,1.039083242,13.51549783,
11.70598208,-6.131309032,11.42692471,0.8330013752,12.99467006,
11.70848812,-6.303592205,10.98425198,0.5937191248,12.67838983,
11.71099416,-6.27966404,10.8619194,0.2177468538,12.5484217,
11.71350021,-6.25094986,11.00100231,0.01196411345,12.6529273,
11.71600625,-6.262914181,11.12303638,0.1986042857,12.76657652,
11.71851229,-6.416054726,11.00339508,0.7396813035,12.758824,
11.72101833,-6.701099873,10.46471119,1.505982757,12.51730418,
11.72352437,-7.050751209,9.459127426,2.298306227,12.01958384,
11.72603042,-7.323532581,8.408080101,2.798705101,11.49620332,
11.72853651,-7.467102051,7.615756035,2.731706142,11.009976,
11.73104255,-7.431210041,7.251748085,2.19780755,10.61325073,
11.73354859,-7.151249409,7.292426109,1.623231053,10.34189179,
11.73605463,-6.612565517,7.666005611,1.230509043,10.19842229,
11.73856068,-5.975775242,8.262117386,1.012762189,10.24686102,
11.74106672,-5.420341492,8.958727837,0.8282157183,10.50356357,
11.74357276,-4.948656559,9.652945518,0.7085745931,10.87063185,
11.7460788,-4.613361835,10.23948669,0.8282157183,11.26126709,
11.74858484,-4.429114819,10.66092205,1.254437327,11.61231803,
11.75109088,-4.457828522,10.88106155,1.881655931,11.90841571,
11.75359692,-4.658825874,10.93370438,2.477767944,12.14042355,
11.75610297,-4.974977493,10.88345432,2.908775091,12.3150701,
11.75860901,-5.358128071,10.82363415,3.073879719,12.46231636,
11.7611151,-5.688337803,10.72552872,2.860918522,12.47313144,
11.76362114,-6.203093529,10.17966557,2.506481647,12.18139609,
11.76612719,-6.949953556,8.750552177,2.061416626,11.36325025,
11.76863323,-7.821538925,6.641279221,1.096511006,10.31917619,
11.77113927,-8.420043945,4.756931305,-0.4334000051,9.68056667,
11.77364531,-8.434400558,3.670290947,-1.886441588,9.389824827,
11.77615135,-7.694719315,3.62452817,-2.32701993,8.818215893,
11.77865739,-6.277271271,4.433900356,-1.642373681,7.858816596,
11.78116344,-4.488935471,5.726622581,-0.4549354017,7.290522208,
11.78366948,-2.772384167,7.215855598,0.6774678826,7.759745403,
11.78617552,-1.321436286,8.748159409,1.458126307,8.966750762,
11.78868156,-0.2392822653,10.16530895,1.762014747,10.31966366,
11.7911876,0.4956133962,11.41256714,1.522732496,11.52436704,
11.79369364,0.9385846853,12.56411362,0.8668000102,12.62890472,
11.79619969,1.17068851,13.66301727,-0.01674975827,13.71308985,
11.79870573,1.220937729,14.68535042,-0.8620143533,14.76120844,
11.80121182,1.197009563,15.59761429,-1.458126307,15.71128689,
11.80371786,1.144367456,16.42822266,-1.814656854,16.56771125,
11.8062239,1.118046403,17.14427567,-1.941476464,17.29004184,
11.80872995,1.053440213,17.78585052,-2.018345833,17.93097697,
11.81123599,0.9481559992,18.38196182,-2.14995122,18.53153557,
11.81374203,0.789930582,18.96611023,-2.40598321,19.13442141,
11.81624807,0.5530411601,19.607687,-2.954238653,19.8367026,
11.81875411,0.1531406492,20.27079773,-3.737289906,20.61300629,
11.82126015,-0.4453641176,21.02483559,-4.642076015,21.53580577,
11.8237662,-1.24965167,21.94667053,-5.597410202,22.68367205,
11.82627224,-2.16670084,22.96900368,-6.543173313,23.98088488,
11.82877828,-3.165106058,23.83789825,-7.541279793,25.20186879,
11.83128432,-4.184747696,24.35743904,-8.647361755,26.18346454,
11.83379036,-5.183153152,24.19712067,-9.763015747,26.60229692,
11.8362964,-6.093023777,23.21546364,-10.78774166,26.31459787,
11.8388025,-6.921239376,21.50848389,-11.53011513,25.36655255,
11.84130854,-7.658827305,19.40190315,-11.86032486,23.99497421,
11.84381458,-8.269295692,17.23520279,-11.73589802,22.43133453,
11.84632062,-8.796015739,15.28146267,-11.12542915,20.84869703,
11.84882666,-9.190832138,13.71326637,-10.14377308,19.37578907,
11.85133271,-9.41366291,12.6000061,-8.841479301,18.04297535,
11.85383875,-9.396913528,11.92014503,-7.359425068,16.8686982,
11.85634479,-8.910871506,11.62343502,-5.920740604,15.79756443,
11.85885083,-7.599006653,11.67368412,-4.77637291,14.7252688,
11.86135687,-5.810371399,12.07358456,-3.995714664,13.98204547,
11.86386292,-4.053142548,12.62393379,-3.46420908,13.70373721,
11.86636896,-2.377269268,13.20598793,-3.191427231,13.79256083,
11.86887505,-0.8018946648,13.67976665,-3.244069338,14.0820111,
11.87138109,0.6200401783,14.0485611,-3.555136204,14.50467208,
11.87388713,1.898405671,14.18255901,-4.005286217,14.85904579,
11.87639318,3.033201694,14.06770325,-4.532006264,15.08773237,
11.87889922,3.981357813,13.70608807,-5.044369221,15.13782418,
11.88140526,4.800301552,13.17458248,-5.456233978,15.04602963,
11.8839113,5.575874805,12.56889915,-5.874977589,14.95269098,
11.88641734,6.322734833,11.93928814,-6.291627884,14.90329354,
11.88892338,6.995417118,11.33599758,-6.701099873,14.91125217,
11.89142942,7.634898663,10.82841969,-7.08425045,15.02441197,
11.89393547,8.185546875,10.4168539,-7.457530975,15.20292048,
11.89644151,8.738588333,10.05523872,-7.996214867,15.53738086,
11.89894755,9.286844254,9.760622978,-8.791230202,16.08729205,
11.90145359,9.837491989,9.569196701,-9.341878891,16.60170098,
11.90395963,10.43599701,9.406484604,-9.652945518,17.04615333,
11.90646568,11.04168034,9.116654396,-10.12463093,17.53682535,
11.90897172,11.69282722,8.769695282,-10.75424194,18.14616994,
11.91147781,12.37508011,8.367402077,-11.41256714,18.79900832,
11.91398385,13.10997581,8.022536278,-12.16451168,19.60122187,
11.91648989,13.86909962,7.756932735,-12.83001614,20.42379112,
11.91899594,14.61117363,7.577471256,-13.19880962,21.09770227,
11.92150198,15.26471329,7.435995579,-13.26102352,21.54437854,
11.92400802,15.73400497,7.280461788,-12.99033546,21.6636297,
11.92651406,15.96610928,7.093822002,-12.34636688,21.39326369,
11.9290201,15.96850204,6.873383045,-11.33599758,20.75430782,
11.93152614,15.69571972,6.535995007,-10.09113121,19.77133727,
11.93403219,15.1785717,6.160022736,-8.707481384,18.55141911,
11.93653823,14.53221035,5.779264927,-7.361817837,17.2852944,
11.93904427,13.82124233,5.365306377,-6.164808273,16.05671552,
11.94155031,12.98076344,4.900799751,-5.195116997,14.81577869,
11.9440564,12.10708427,4.474578381,-4.558327198,13.68874312,
11.94656245,11.25224876,4.17517662,-4.242474556,12.72964227,
11.94906849,10.46471119,3.959822416,-4.275974274,11.97807705,
11.95157453,9.700801849,3.804288864,-4.488935471,11.34586762,
11.95408057,8.994620323,3.660719633,-4.555934429,10.72663048,
11.95658661,8.400900841,3.694219112,-4.323830605,10.14484603,
11.95909265,7.967501163,4.050749779,-4.060320854,9.817120454,
11.9615987,7.689933777,4.548755646,-4.086641788,9.824810457,
11.96410474,7.462316513,4.802694321,-4.151247978,9.797188385,
11.96661078,7.390532017,4.888835907,-4.247260094,9.826489623,
11.96911682,7.589435101,4.855336189,-4.843372345,10.22898188,
11.97162286,7.883752346,4.697110653,-5.489733219,10.69362288,
11.9741289,8.348258972,4.622933388,-6.102594852,11.32725054,
11.97663495,8.987442017,4.558327198,-6.665207386,12.08211283,
11.97914099,9.715159416,4.577469826,-7.115357399,12.8827739,
11.98164708,10.48624611,4.570291042,-7.455138206,13.65386404,
11.98415312,11.26899815,4.543970108,-7.639684677,14.35279644,
11.98665916,12.11186981,4.579862595,-7.656434059,15.04305535,
11.98916521,12.96401405,4.651647091,-7.479066372,15.67290384,
11.99167125,13.77817154,4.706682205,-7.24217701,16.26161112,
11.99417729,14.42453289,4.675575256,-6.823133945,16.62778728,
11.99668333,14.94168186,4.608576298,-6.236593246,16.83412985,
11.99918937,15.28385544,4.520041943,-5.506483078,16.86263242,
12.00169542,15.41306782,4.374079704,-4.680361271,16.6913455,
12.00420146,15.40110397,4.232903481,-3.801896095,16.41846185,
12.0067075,15.23599911,4.127319813,-3.028416157,16.07301285,
12.00921354,14.96800327,3.986143351,-2.315055847,15.66173504,
12.01171958,14.62553024,3.818645954,-1.680658817,15.20897123,
12.01422562,14.28305721,3.579064369,-1.177866936,14.77168899,
12.01673172,13.92174149,3.325425386,-0.8763712645,14.34020107,
12.01923776,13.52184105,3.073879719,-0.7707880139,13.88823373,
12.0217438,13.0453701,2.848954439,-0.8524430394,13.380018,
12.02424984,12.53300667,2.652743101,-1.086939692,12.8567002,
12.02675588,12.02064323,2.530709028,-1.319043517,12.35476539,
12.02926192,11.52293682,2.540280342,-1.520339727,11.89716479,
12.03176797,11.05364418,2.65513587,-1.699801445,11.4944387,
12.03427401,10.61785126,2.88006115,-1.850549221,11.15607682,
12.03678005,10.17009449,3.124428272,-2.032702923,10.83165524,
12.03928609,9.739087105,3.346960783,-2.233700037,10.53761738,
12.04179213,9.296415329,3.521636724,-2.449054003,10.23831669,
12.04429818,8.810373306,3.643670797,-2.683849812,9.90464863,
12.04680427,8.312366486,3.703790426,-2.932703257,9.561079882,
12.04931031,7.840681553,3.725325823,-3.148356438,9.233985486,
12.05181635,7.395317554,3.756432533,-3.373281717,8.954358528,
12.05432239,7.002595425,3.880859137,-3.528815269,8.749282686,
12.05682844,6.696314335,4.110570431,-3.636492252,8.658030425,
12.05933448,6.509674072,4.505684853,-3.734897137,8.753656901,
12.06184052,6.478567123,5.087440014,-3.806681633,9.074398213,
12.06434656,6.614958286,5.87258482,-3.895216227,9.665279874,
12.0668526,6.916453838,6.818347931,-3.964607954,10.49024873,
12.06935864,7.306783199,7.890930653,-4.045963764,11.49024326,
12.07186469,7.792825222,9.016156197,-4.139284134,12.61558047,
12.07437073,8.226224899,10.14377308,-4.213760853,13.72307141,
12.07687677,8.654540062,11.28574753,-4.340580463,14.86976125,
12.07938281,9.03051281,12.29133129,-4.541577339,15.91392193,
12.08188885,9.274879456,13.05733395,-4.766502857,16.71038324,
12.08439489,9.487840652,13.61755371,-5.147260666,17.37674255,
12.08690099,9.667302132,13.91456318,-5.673980713,17.86801209,
12.08940703,9.779765129,13.998312,-6.241378784,18.18107131,
12.09191307,9.830313683,13.88345623,-6.801598549,18.32067594,
12.09441911,9.839884758,13.58644676,-7.342675209,18.312011,
12.09692515,9.859027863,13.12672615,-7.893323898,18.21581544,
12.0994312,9.851848602,12.46122169,-8.348258972,17.9453168,
12.10193724,9.765408516,11.56122208,-8.556434631,17.38498297,
12.10444328,9.669695854,10.43121147,-8.388936996,16.51325088,
12.10694932,9.557232857,9.035298347,-7.768897057,15.27524395,
12.10945536,9.416056633,7.40488863,-6.689135551,13.72002305,
12.1119614,9.248259544,5.628517151,-5.233402252,12.02493281,
12.11446745,9.004191399,3.854538202,-3.531208038,10.41164529,
12.11697349,8.707481384,2.10209465,-1.759621978,9.128817201,
12.11947958,8.336295128,0.4381856322,-0.09810572863,8.348379953,
12.12198562,7.953144073,-1.12283206,1.36211431,8.146693064,
12.12449166,7.596613884,-2.542673111,2.540280342,8.403972469,
12.12699771,7.440781116,-3.732504129,3.349353552,8.973013982,
12.12950375,7.625327587,-4.620540619,3.598206997,9.614682003,
12.13200979,8.226224899,-5.195116997,3.145963669,10.22531682,
12.13451583,9.200403214,-5.437091351,2.111665964,10.89350792,
12.13702187,10.40489006,-5.367699623,0.6583253145,11.72635189,
12.13952792,11.76700401,-5.056333542,-1.079761267,12.85281202,
12.14203396,13.13390446,-4.620540619,-2.925524712,14.22700027,
12.14454,14.44846153,-4.110570431,-4.694717884,15.73833555,
12.14704604,15.69571972,-3.569493294,-6.274878502,17.27631327,
12.14955208,16.83769417,-3.023630619,-7.620542049,18.72759857,
12.15205812,17.9198494,-2.417947292,-8.611469269,20.02810212,
12.15456416,18.77677917,-1.407876968,-8.958727837,20.85205885,
12.15707026,19.17667961,0.2033899277,-8.46072197,20.96115991,
12.1595763,19.20778465,1.982453585,-7.74736166,20.8060262,
12.16208234,18.87279129,3.651148319,-6.641279221,20.33764305,
12.16458838,18.0083828,4.601397991,-5.204688549,19.30190398,
12.16709442,16.57926941,4.848157883,-4.658825874,17.89082076,
12.16960047,14.79063511,5.506483078,-5.638088226,16.75924466,
12.17210651,12.549757,6.736992359,-7.038786888,15.88798249,
12.17461255,9.839884758,7.919644833,-8.087141991,14.99819896,
12.17711859,7.579864025,9.794121742,-8.805587769,15.19597102,
12.17962463,6.483353138,13.73719501,-9.028120041,17.67063514,
12.18213068,6.567101955,21.38166428,-10.22273636,24.59281875,
12.18463672,7.208677292,32.27977753,-14.48196125,36.10645742,
12.18714276,7.656434059,44.59473801,-20.84058762,49.81607906,
12.18964885,7.055536747,56.38566971,-24.01526451,61.69163052,
12.19215489,4.254438877,62.99584198,-20.80948067,66.48015375,
12.19466094,-1.022333503,59.44070435,-12.56650639,60.76314328,
12.19716698,-8.103892326,47.63063049,6.629314899,48.76779519,
12.19967302,-13.57448292,31.47518921,25.7892437,42.89567825,
12.20217906,-11.73829079,15.53061581,34.32175064,39.45845999,
12.2046851,-4.965405941,3.914358854,34.87718582,35.44567043,
12.20719114,1.625623941,-3.32063961,30.02453995,30.25131897,
12.20969719,7.117750168,-7.510172844,22.05673981,24.36318605,
12.21220323,11.59232807,-9.820742607,13.05494118,20.03148883,
12.21470927,15.03739452,-11.4077816,5.0324049,19.53422162,
12.21721531,17.59412575,-13.12672615,-2.080559254,22.04978293,
12.21972135,19.24607086,-16.0812645,-10.48624611,27.18418049,
12.22222739,20.1918335,-18.5422821,-17.77149391,32.67035906,
12.22473349,20.65155411,-19.80389786,-20.73530388,35.33601399,
12.22723953,20.40958023,-21.13759613,-20.97937202,36.10378077,
12.22974557,19.57179451,-22.02084732,-19.71297073,35.44818856,
12.23225161,18.21655846,-21.98734856,-18.07538223,33.7935784,
12.23475765,16.76830292,-21.00569344,-17.13709641,31.87624841,
12.2372637,15.87039661,-19.70100594,-18.64995956,31.42960571,
12.23976974,16.11236954,-18.22852325,-22.85175514,33.37799013,
12.24227578,17.58694649,-15.53779411,-28.05644417,36.57714849,
12.24478182,20.16072655,-10.97228813,-31.6498642,39.09680173,
12.24728786,23.72064972,-4.694717884,-32.24837112,40.30715866,
12.2497939,27.84348297,2.511267424,-30.04129028,41.03711893,
12.25229995,32.15026474,9.786943436,-25.56192589,42.22364077,
12.25480599,36.21806335,16.08844185,-18.38196182,43.68618311,
12.25731208,39.74927139,20.81665993,-8.764909744,45.71828463,
12.25981812,41.93032837,23.91476631,2.121237278,48.31736885,
12.26232416,42.04278946,25.93759918,11.30010509,50.67590721,
12.26483021,39.90480423,26.32553482,16.71326828,50.64346474,
12.26733625,35.89951706,24.3646183,17.68774414,46.8536684,
12.26984229,30.89822006,20.21336937,14.5011034,39.66815227,
12.27234833,25.76292229,15.0589304,8.53011322,31.03646857,
12.27485437,21.31466675,10.01695347,1.046261668,23.57433008,
12.27736042,17.9581337,6.305984974,-6.725028038,20.18628283,18.756232163754166
12.27986646,15.51865101,4.065106392,-13.14347553,20.73896256,18.76432000610383
12.2823725,13.998312,3.706183195,-17.33570099,22.58794062,18.774014072525603
12.28487854,13.01187038,4.139284134,-20.85733795,24.9293199,18.78587682328232
12.28738458,11.47956657,4.869693279,-21.58266258,24.9260042,18.797582518619645
12.28989062,9.65055275,6.289235115,-19.67707825,22.80076874,18.80691513518257
12.29239672,7.584649563,8.113463402,-15.49711609,19.06609043,18.81220833625849
12.29490276,5.312365532,9.897313118,-10.09591675,15.10316422,18.813188328913615
12.2974088,2.901596546,11.10389328,-4.120141506,12.19390317,18.810975248504818
12.29991484,0.5697908998,11.73589802,0.9672985673,11.78947117,18.80814930842725
12.30242088,-1.37886405,12.12144089,3.672683716,12.74045529,18.80620600250075
12.30492692,-2.803490877,12.12383366,3.454637766,12.91438832,18.80449719849819
12.30743297,-3.600599766,12.11186981,0.8258228898,12.66268899,18.80267818981357
12.30993901,-3.897608995,12.57607746,-2.959024191,13.49462502,18.801909886304394
12.31244505,-3.82821703,13.43091393,-7.282855034,15.75070386,18.803694584663255
12.31495109,-3.409173965,14.65902996,-12.55454254,19.59913684,18.809667222461606
12.31745713,-3.021237612,15.65982819,-16.42583084,22.89467218,18.81933686637072
12.31996318,-2.588136673,16.01187134,-17.97727585,24.21282557,18.83080148575153
12.32246922,-1.881655931,15.50907993,-17.7332077,23.63342643,18.842188081832774
12.32497531,-1.046261668,14.45324707,-15.76271915,21.41154664,18.851790586690846
12.32748135,0.05503492057,13.47637749,-12.65294743,18.48547694,18.85885953183161
12.32998739,1.424626827,12.75823116,-9.004191399,15.68048108,18.863425728405186
12.33249344,2.944667339,12.06132126,-5.329114914,13.51095859,18.86607897934869
12.33499948,4.555934429,11.30489063,-2.571387053,12.45668985,18.867878643259814
12.33750552,6.277271271,10.65852928,-1.477268934,12.45755612,18.869812882058486
12.34001156,8.094321251,10.31366348,-2.145165443,13.28500755,18.872648100407755
12.3425176,9.969097137,10.36869907,-3.691826344,14.84999663,18.87705741361756
12.34502364,11.88903809,10.95553875,-5.211866856,16.98636547,18.883604220308893
12.34752969,13.73958778,11.88185978,-6.212665081,19.19771006,18.89230744526997
12.35003573,15.38674736,12.95922852,-6.794419765,21.23341089,18.902971612699336
12.35254177,16.64148331,14.03420353,-7.17757082,22.92194054,18.915282439333012
12.35504781,17.4744854,14.93211079,-7.522137165,24.18487378,18.928899219194403
12.35755385,17.85524178,15.51865101,-7.816753387,24.91465074,18.943354215940982
12.36005995,17.79302979,15.81057549,-8.024929047,25.11903048,18.958193778214948
12.36256599,17.1873455,15.90628815,-7.972286701,24.73807194,18.97281115063377
12.36507203,16.12911987,15.79861164,-7.491030216,23.78781561,18.986568931961692
12.36757807,14.89382553,15.52104378,-6.490531445,22.46899725,18.998880778002444
12.37008411,13.52662659,15.23360634,-5.101797104,21.00144573,19.009389127537926
12.37259015,12.06879902,15.05653763,-3.672683716,19.64290815,19.018015321223473
12.3750962,10.59870911,15.0086813,-2.588136673,18.55509635,19.024858509975974
12.37760224,9.085547447,15.14507198,-2.013560295,17.7756801,19.030120995960143
12.38010828,7.680362701,15.48993778,-1.963011861,17.40056204,19.034183989022797
12.38261432,6.308377743,15.97328758,-2.255235434,17.32130575,19.037353134620115
12.38512036,4.96779871,16.42583084,-2.614457846,17.35863856,19.03981396496583
12.3876264,3.675076485,16.83290863,-2.920739174,17.47523154,19.041765971188426
12.39013245,2.461018085,16.98604965,-3.124428272,17.44547348,19.043113184152066
12.39263854,1.295115232,16.94776535,-3.143570662,17.28543058,19.04370085492841
12.39514458,0.2392822653,16.8664093,-2.997309446,17.13233442,19.043525083965907
12.39765062,-0.6822535396,16.72762489,-2.746062994,16.96525173,19.042656309579222
12.40015666,-1.446162224,16.54786491,-2.45383954,16.79120445,19.041273164920934
12.40266271,-2.097309113,16.25115395,-2.154736757,16.52699611,19.039524128507832
12.40516875,-2.540280342,15.98285866,-1.840977907,16.28784807,19.03764926696355
12.40767479,-2.753241539,15.70050621,-1.537089467,16.0140213,19.035791414925907
12.41018083,-2.777169704,15.28146267,-1.299900889,15.58606798,19.034071816246982
12.41268687,-2.533101797,14.92971802,-1.17068851,15.18827167,19.03279487339259
12.41519292,-2.027917147,14.73081398,-1.02711916,14.90517703,19.0323519235872
12.41769896,-1.299900889,14.68774319,-0.9385846853,14.77499521,19.033098967738024
12.420205,-0.5219344497,14.70927906,-1.10608232,14.76003808,19.035221086435264
12.42271104,0.1196411327,14.65185165,-1.450947881,14.72400491,19.038551713116867
12.42521713,0.6224330068,14.56571007,-1.965703845,14.71092534,19.042860950081426
12.42772318,1.005583763,14.5513525,-2.626421928,14.82063259,19.047910817847242
12.43022922,1.163509965,14.53699589,-3.059522867,14.90096255,19.05337971508517
12.43273526,1.10608232,14.54895973,-3.186641455,14.93486964,19.058969267135144
12.4352413,0.8162516356,14.4317112,-3.093321562,14.78205646,19.06430193643395
12.43774734,0.4070789516,14.48913956,-2.832204819,14.76896281,19.06939138236401
12.44025338,0.02632104978,14.63510132,-2.401197433,14.83080013,19.074226824967322
12.44275942,-0.375972271,14.68535042,-1.869691849,14.80866705,19.078577140939295
12.44526547,-0.9098708034,14.44606876,-1.307079315,14.53358951,19.082190980579504
12.44777151,-1.534696579,13.96241951,-0.8811569214,14.07412128,19.085206502977485
12.45027755,-2.271985054,13.328022,-0.7396813035,13.54050276,19.087119236826503
12.45278359,-2.978166819,12.64816093,-1.21854496,13.05106526,19.087211879986146
12.45528969,-3.595814228,12.02542973,-2.056631088,12.71890606,19.08533313892122
12.45779573,-4.010071754,11.74546909,-3.014059305,12.77189388,19.08175686152691
12.46030177,-4.280759811,11.92014503,-4.065106392,13.30187401,19.076777283167086
12.46280781,-4.515256405,12.46600819,-5.077868938,14.19766366,19.07143042037715
12.46531385,-4.826622486,13.1458683,-5.673980713,15.10973842,19.06697332512848
12.46781989,-5.286044121,13.71565914,-5.532804012,15.70584249,19.06368905794438
12.47032594,-6.073881149,13.92891979,-4.443471432,15.8319701,19.061331480825125
12.47283198,-7.110571384,13.73480225,-2.281556368,15.63363418,19.059903610626378
12.47533802,-8.357830048,13.03340626,0.5171487927,15.49162498,19.059261991758078
12.47784406,-9.573982239,11.91775227,3.270390272,15.63295901,19.058790565851403
12.4803501,-10.56760216,10.59392357,5.38923502,15.90437946,19.055237140447428
12.48285614,-11.11825085,9.368199348,6.358626842,15.86854739,19.04254787094669
12.48536219,-11.13500023,8.374580383,6.296413898,15.28942951,19.01657931959651
12.48786823,-10.63220787,7.65404129,5.659623623,14.27093311,18.976969321788875
12.49037432,-9.605089188,7.24217701,4.778766155,12.94385847,18.928009438048896
12.49288036,-8.106285095,7.282855034,3.746861219,11.52348925,18.87872974848286
12.4953864,-6.595815659,7.670791149,2.73649168,10.48018167,18.838987155849974
12.49789245,-5.278865814,8.276473999,1.80508554,9.981221365,18.811305177803995
12.50039849,-4.295116425,8.937192917,1.043868899,9.970511753,18.786332407077253
12.50290453,-3.653541088,9.535696983,0.6296114326,10.2310454,18.758056870511
12.50541057,-3.303889751,10.09591675,0.5338985324,10.63617742,18.729734309382543
12.50791661,-3.253640652,10.55085278,0.6918248534,11.06278868,18.705751604111565
12.51042265,-3.500101328,10.93609715,1.036690354,11.52925223,18.688143897475893
12.5129287,-3.871287823,11.30967617,1.477268934,12.04483159,18.67556445478906
12.51543474,-4.304687977,11.59711361,1.843370795,12.50685406,18.66424776366497
12.51794078,-4.848157883,11.82443237,2.123630047,12.95498516,18.651138448799756
12.52044682,-5.470590591,11.94168091,2.310270309,13.33673323,18.634721321422056
12.52295286,-6.219843388,11.51815128,2.566601276,13.33947911,18.614891361942764
12.52545896,-7.108178616,10.18684387,2.923131943,12.76098318,18.593084546405542
12.527965,-7.893323898,8.266902924,2.863311291,11.78324224,18.57088225790151
12.53047104,-8.06799984,6.634100914,1.74047935,10.58929576,18.54838396751263
12.53297708,-7.306783199,5.939883232,-0.004785645287,9.416544825,18.524133975173015
12.53548312,-5.83669281,6.243771553,-1.342971683,8.651892227,18.496693324392275
12.53798916,-4.077070713,7.196712971,-1.764407635,8.457441545,18.46508800279659
12.54049521,-2.26241374,8.443971634,-1.486840129,8.867348333,18.429376458874682
12.54300125,-0.608076036,9.767801285,-1.051047325,9.842987295,18.391761113400904
12.54550729,0.7851449251,11.03928757,-0.8428717852,11.09922319,18.35545230765537
12.54801333,1.829013824,12.27697468,-0.8979067206,12.44490399,18.32225709367058
12.55051937,2.444268227,13.39741421,-1.110867858,13.66379091,18.29244099445484
12.55302542,2.652743101,14.39581966,-1.364507079,14.70165124,18.26667718888102
12.55553146,2.552244425,15.25753403,-1.563410521,15.54832945,18.24441191774419
12.55803755,2.204986095,15.98285866,-1.649552107,16.2183463,18.221982802993587
12.56054359,1.750050664,16.56252098,-1.470090389,16.71947799,18.19377278072436
12.56304963,1.252044439,16.94776535,-1.051047325,17.02642259,18.15775836069973
12.56555568,0.7540382147,17.08654785,-0.4788636267,17.10988023,18.11694607211094
12.56806172,0.2898306549,16.99801445,0.08135596663,17.00067986,18.0771918222282
12.57056776,-0.1124626622,16.73241043,0.3831507266,16.73717453,18.04519564259043
12.5730738,-0.4764707983,16.38275909,0.2105683982,16.39103899,18.024913896975725
12.57557984,-0.7683951855,16.09083557,-0.5291129351,16.11785907,18.01582956256044
12.57808588,-1.02711916,15.96132374,-1.800299883,16.09533811,18.011841827265705
12.58059192,-1.350150228,16.09562111,-3.435495138,16.51346576,18.006070381666582
12.58309797,-1.738086581,16.56012726,-5.197509766,17.44341903,17.9975845238722
12.58560401,-2.248056889,17.35484314,-6.940382004,18.82586632,17.989383249495155
12.58811005,-2.892025232,18.37239075,-8.513363838,20.454484,17.984734283510537
12.59061614,-3.579064369,19.38993835,-9.904491425,22.06532034,17.986300695646968
12.59312219,-4.280759811,20.08894157,-11.14696407,23.36975152,17.99424359228898
12.59562823,-4.876871586,20.19901276,-12.21236897,24.10240545,18.00658538277641
12.59813427,-5.367699623,19.6340065,-13.0956192,24.2033397,18.02090104898042
12.60064031,-5.714658737,18.42024803,-13.70608807,23.66050955,18.03540672244323
12.60314635,-5.970989704,16.80180168,-13.99352551,22.66653952,18.049452974081188
12.60565239,-6.081059456,15.09003735,-13.84038544,21.35988718,18.062139992898036
12.60815844,-6.014060497,13.58166122,-13.19163132,19.86578924,18.071094676147343
12.61066448,-5.769693375,12.43729401,-12.1669054,18.33055457,18.07366983491218
12.61317052,-5.300401211,11.79571819,-10.93131161,16.93300901,18.069943571919097
12.61567656,-4.53918457,11.61864948,-9.672088623,15.78437552,18.06264812497388
12.6181826,-3.579064369,11.80528927,-8.487042427,14.97345804,18.054587165869545
12.6206887,-2.557030201,12.17408371,-7.424031258,14.48664757,18.047510607455077
12.62319474,-1.565803289,12.59522057,-6.50010252,14.25982657,18.042282882479114
12.62570078,-0.5626124144,12.91137218,-5.769693375,14.15307126,18.039253772526358
12.62820682,0.4262215197,13.07169056,-5.23818779,14.08862556,18.038007052123433
12.63071286,1.446162224,13.08365536,-4.922335148,14.05356916,18.037852639375636
12.6332189,2.434697151,12.96640682,-4.752145767,14.02277952,18.03793584002742
12.63572495,3.306282759,12.73908901,-4.709074974,13.97824315,18.03722145918815
12.63823099,4.108177185,12.40140152,-4.766502857,13.90652469,18.034742466364918
12.64073703,4.752145767,11.92014503,-4.898406982,13.73561568,18.02994286548595
12.64324307,5.31715107,11.36231804,-5.092225552,13.53902241,18.022702630017655
12.64574911,5.877370834,10.82602692,-5.384449005,13.44390709,18.0133262742787
12.64825515,6.418447495,10.30648518,-5.793622017,13.45310971,18.002243393433364
12.65076125,6.973881721,9.825528145,-6.258128643,13.57719425,17.990170534478338
12.65326729,7.577471256,9.428020477,-6.698707104,13.82672476,17.977925812006756
12.65577333,8.185546875,9.090332985,-7.139285564,14.16357052,17.966143442907995
12.65827937,8.781659126,8.733802795,-7.622934818,14.54324529,17.955435850919567
12.66078542,9.339486122,8.427222252,-8.130212784,14.97813192,17.946088985929514
12.66329146,9.892526627,8.152048111,-8.690432549,15.48681986,17.938320732709283
12.6657975,10.4790678,7.893323898,-9.317950249,16.09160095,17.932088507222293
12.66830354,10.97946644,7.519744396,-9.904491425,16.58897795,17.92713954756199
12.67080958,11.51336479,7.165606499,-10.55324554,17.18355251,17.92340559418152
12.67331562,12.07119179,6.921239376,-10.94596672,17.70399427,17.920544062895683
12.67582166,12.58325577,6.631708145,-10.87388325,17.90416755,17.9182089581372
12.67832771,13.01426315,6.301199436,-10.61785126,17.93920079,17.916186695588923
12.68083375,13.4285202,6.028417587,-10.4168539,18.03268751,17.914570381568858
12.68333979,13.73958778,5.74337244,-10.28973579,18.10086358,17.913305935739423
12.68584588,13.86670589,5.408377171,-10.06002426,17.96497047,17.912162187454946
12.68835193,13.83799267,5.080261707,-9.564411163,17.57205341,17.910808274435613
12.69085797,13.74676609,4.833800793,-8.736195564,16.9900065,17.909142887266892
12.69336401,13.63191032,4.579862595,-7.735397339,16.32913018,17.907174046662014
12.69587005,13.440485,4.354937077,-6.729813576,15.64936116,17.90488862996631
12.69837609,13.19402409,4.074677944,-5.834300041,14.99080815,17.902276590635072
12.70088213,12.91137218,3.773182154,-5.058726311,14.37119157,17.899398465741122
12.70338818,12.61196995,3.485744476,-4.436293125,13.81639957,17.89639337031516
12.70589422,12.36311626,3.244069338,-4.031607151,13.40240597,17.893483423654136
12.70840026,12.14297676,3.081058264,-3.940679789,13.13292663,17.890852884539267
12.7109063,11.93928814,2.951845884,-4.074677944,12.95619527,17.888591152945285
12.71341234,11.71914768,2.801098108,-4.323830605,12.80156569,17.88666416953305
12.71591844,11.48195934,2.688635349,-4.630111694,12.66894174,17.884981733962224
12.71842448,11.38146114,2.738884687,-5.022833824,12.73844601,17.883572006908377
12.72093052,11.37189007,2.91116786,-5.532804012,12.97716079,17.882469140324726
12.72343656,11.43888855,3.112463951,-5.978168488,13.27682573,17.88177981420548
12.7259426,11.52054405,3.332603693,-6.375376701,13.58214308,17.881641327343743
12.72844864,11.5899353,3.524029493,-6.610172749,13.79999159,17.881949152381228
12.73095469,11.7023983,3.665505171,-6.758527756,14.00213382,17.882768881445156
12.73346073,11.83639622,3.768396616,-6.775277138,14.14939818,17.884103710461666
12.73596677,12.00867939,3.856930971,-6.638886452,14.25338944,17.885924396054335
12.73847281,12.20758247,3.900001764,-6.449554443,14.34684063,17.88799699820714
12.74097885,12.34158134,3.844966888,-6.246164322,14.35663502,17.88968551853549
12.74348489,12.43250847,3.710968733,-5.865406513,14.23873412,17.890387381288402
12.74599094,12.51147175,3.593421459,-5.413163185,14.09794094,17.889894298626725
12.74849703,12.56172085,3.413959742,-5.006083965,13.9467856,17.888280290486193
12.75100307,12.55214977,3.270390272,-4.608576298,13.76556907,17.885888480619165
12.75350911,12.47557926,3.200998545,-4.184747696,13.54247329,17.883199807811113
12.75601515,12.34397411,3.150749207,-3.768396616,13.28539538,17.88062412741448
12.7585212,12.1980114,3.083451033,-3.507279873,13.06139979,17.878543648757503
12.76102724,12.10947704,2.951845884,-3.447459221,12.9320456,17.877146056230604
12.76353328,12.05653572,2.796312332,-3.651148319,12.90388702,17.876219635324084
12.76603932,11.99432278,2.633600473,-3.847359657,12.86863655,17.87561513994366
12.76854536,11.85793209,2.557030201,-3.878466368,12.73544103,17.875271950699243
12.7710514,11.57318592,2.520838737,-3.703790426,12.41012989,17.875087880347497
12.77355745,11.22114182,2.542673111,-3.401995659,11.99803253,17.875047864230062
12.77606354,10.83799076,2.597707987,-2.978166819,11.53601353,17.875117479501764
12.77856958,10.48863888,2.645564556,-2.51844573,11.10644526,17.875299876070628
12.78107562,10.1844511,2.693420887,-2.106880426,10.74320741,17.87560744021146
12.78358167,9.954740524,2.767598391,-1.704586983,10.47196622,17.875920002015853
12.78608771,9.779765129,2.810669184,-1.307079315,10.25924576,17.87606174805979
12.78859375,9.626625061,2.832204819,-0.9361918569,10.07818185,17.8758914558427
12.79109979,9.461520195,2.836990356,-0.6798607111,9.901065057,17.875345791411856
12.79360583,9.34427166,2.758027315,-0.6152545214,9.762205983,17.874401533012577
12.79611187,9.255437851,2.667099953,-0.6176473498,9.651841286,17.873142139253826
12.79861792,9.298808098,2.700599432,-0.5506483316,9.698674287,17.871788737102776
12.80112396,9.411270142,2.841775894,-0.4980062246,9.843561658,17.870503046173347
12.80363,9.552447319,3.112463951,-0.4142574072,10.05526185,17.869662503329526
12.80613604,9.703194618,3.526422262,-0.4381856322,10.33342375,17.869636383188535
12.80864213,9.844670296,3.947858334,-0.7301099896,10.63184741,17.870599496248804
12.81114818,9.981060982,4.371686935,-1.228116274,10.96546828,17.873032680924567
12.81365422,10.07198906,4.735395908,-1.941476464,11.29771078,17.87667285500587
12.81616026,10.11984539,5.097011566,-2.765205622,11.66349689,17.88037691450149
12.8186663,10.09591675,5.520840168,-3.626920938,12.06489812,17.882994721944584
12.82117234,10.08634567,6.054738522,-4.493721008,12.59316307,17.884056527713188
12.82367838,10.0767746,6.736992359,-5.365306377,13.25575214,17.883713979382307
12.82618443,10.07916737,7.474280834,-6.234200478,14.01141479,17.882366543566455
12.82869047,10.07438183,8.259724617,-7.01964426,14.79836564,17.880417694686358
12.83119651,10.08634567,9.073583603,-7.550850868,15.52673943,17.878181537964164
12.83370255,10.10548782,9.856635094,-7.840681553,16.14776848,17.875842241787577
12.83620864,10.0767746,10.54367352,-7.907680511,16.59041436,17.873457871220868
12.83871469,9.954740524,11.11107159,-7.847859859,16.85650246,17.870959171272464
12.84122073,9.77737236,11.50110245,-7.680362701,16.93695188,17.868162359299838
12.84372677,9.545269012,11.77418327,-7.414460182,16.87358208,17.864920774243117
12.84623281,9.310771942,11.9225378,-7.108178616,16.71417318,17.861134921790335
12.84873885,9.111868858,11.99193001,-6.7704916,16.51278583,17.856773552231
12.85124489,9.054440498,11.92971611,-6.571887493,16.35514367,17.85181395793039
12.85375094,9.171689034,11.72632694,-6.5790658,16.27607846,17.84619415450545
12.85625698,9.451948166,11.35992527,-6.765706062,16.2530614,17.839736937935925
12.85876302,9.859027863,10.86431217,-7.08425045,16.29172532,17.832299070660905
12.86126906,10.45753193,10.26580715,-7.438388348,16.43400109,17.8238418214457
12.8637751,11.13500023,9.602696419,-7.785646915,16.63779753,17.814443750458803
12.86628114,11.86989594,8.815158844,-8.091927528,16.85469508,17.804372668364557
12.86878719,12.55693531,7.893323898,-8.317152023,17.00459362,17.79399218236383
12.87129328,13.12433338,6.866204739,-8.319544792,16.98845843,17.783644680273905
12.87379932,13.59841156,5.740979671,-7.972286701,16.77596494,17.773624919618232
12.87630536,13.84277821,4.508078098,-7.237390995,16.25807815,17.76404891552201
12.8788114,13.73240948,3.212962627,-6.042774677,15.34331531,17.754846485078804
12.88131745,13.13390446,1.817049742,-4.491328239,13.99904087,17.74579550404953
12.88382349,12.12383366,0.3879363835,-2.748456001,12.43751774,17.73679186392228
12.88632953,10.94836044,-1.02711916,-1.034297585,11.04496907,17.727983175318982
12.88883557,9.794121742,-2.40598321,0.4932205677,10.09736809,17.71965612246129
12.89134161,8.764909744,-3.66789794,1.632802367,9.640703382,17.712166243529875
12.89384765,7.979465485,-4.744967461,2.19780755,9.540280061,17.70577994631684
12.8963537,7.620542049,-5.554339409,2.154736757,9.672964276,17.70067351744393
12.89885974,7.704290867,-6.016453266,1.570588946,9.900533183,17.69666909762251
12.90136583,8.257331848,-6.114559174,0.5817549825,10.29124881,17.693657464437564
12.90387187,9.028120041,-5.920740604,-0.7229315639,10.82057073,17.69160360176594
12.90637792,9.909276962,-5.508875847,-2.164308071,11.54234432,17.69049253793116
12.90888396,10.87388325,-4.907978535,-3.564707518,12.45137462,17.690418781517973
12.91139,11.81007481,-4.153641224,-4.826622486,13.41740985,17.69138975911184
12.91389604,12.66012573,-3.325425386,-5.831906796,14.32998166,17.693337196684244
12.91640208,13.39980698,-2.499303341,-6.457031727,15.08292422,17.696130067760045
12.91890812,13.98873997,-1.75722909,-6.624529362,15.57745452,17.69949398693866
12.92141417,14.4508543,-1.120439172,-6.31316328,15.80944669,17.703054998243505
12.92392021,14.71167183,-0.6535396576,-5.633302689,15.76687988,17.706344734968322
12.92642625,14.73560047,-0.318544507,-4.637290478,15.45133829,17.708810718028626
12.92893229,14.50588894,0.06221338734,-3.263211966,14.86853176,17.71006381537355
12.93143838,13.95763397,0.6966105103,-1.223330617,14.02844789,17.70972258927862
12.93394442,13.2586298,2.051845312,0.03110669367,13.41649362,17.70794372965151
12.93645047,12.19561863,4.575077057,0.2703889608,13.02833658,17.704995979816164
12.93895651,10.2969141,5.990132332,-0.36161533,11.91800701,17.70015556543083
12.94146255,8.171190262,6.591030121,-3.433102369,11.04518991,17.69360261692282
12.94396859,6.291627884,8.293224335,-7.79761076,13.00634018,17.68823680536766
12.94647463,3.935894251,10.56520939,-11.44845963,16.0680472,17.685255156741665
12.94898068,1.31425786,12.96401405,-12.89701462,18.33373721,17.68381143705514
12.95148672,-0.03349951655,17.62762451,-14.06531048,22.55143514,17.686329645159073
12.95399276,0.08374879509,26.46910477,-16.7156601,31.30549175,17.69758956742798
12.9564988,0.6822535396,38.79154205,-20.938694,44.08716493,17.72157550746376
12.95900484,0.6463612318,52.59364319,-24.67119789,58.09627434,17.759700371936933
12.96151094,-1.632802367,63.6828804,-24.6855545,68.31948405,17.80850791874483
12.96401698,-6.370591164,66.63502502,-20.76401711,70.08534368,17.85988956964315
12.96652302,-12.40379429,57.5327301,-12.50668621,60.16881539,17.902426578692044
12.96902906,-18.44656944,41.38446426,12.4109726,46.97852751,17.93296043883691
12.9715351,-18.30060577,23.93869591,35.36083221,46.45817246,17.964031023820493
12.97404114,-10.29212856,10.04566765,44.95874405,47.20309328,17.996824598854758
12.97654719,-1.745265007,1.206580877,45.18636322,45.23614935,18.02855845384404
12.97905323,5.097011566,-3.998107433,38.61447525,39.15408138,18.054984144803164
12.98155927,10.15813065,-7.40488863,28.20001221,30.87491996,18.073750787848752
12.98406531,13.48116302,-10.94836044,16.50718689,23.96029157,18.086099194006398
12.98657135,15.83450413,-13.79731464,6.081059456,21.86496505,18.096672678364452
12.98907739,17.85524178,-15.91825294,-3.502494097,24.17577094,18.10952925145442
12.99158344,19.10728645,-18.37957001,-12.45882893,29.29367521,18.127342379174504
12.99408953,19.42343903,-20.9769783,-19.89003944,34.82696185,18.150534934043524
12.99659557,18.7432785,-22.43749809,-23.68236351,37.62454187,18.17638829903238
12.99910161,17.04826355,-22.21496582,-23.79961205,36.75009565,18.2011865961423
13.00160765,14.77867126,-20.4311161,-21.89402771,33.39443186,18.222563235876166
13.0041137,12.77498055,-18.05624008,-19.58615112,29.54395454,18.240201221621238
13.00661974,11.85075283,-15.92543125,-18.59971046,27.2031052,18.255809004087588
13.00912578,12.25543976,-14.29980755,-19.90918159,27.40539749,18.27212849099982
13.01163182,14.12273788,-12.8754797,-23.19632149,30.05493359,18.291694292580438
13.01413786,17.20648766,-10.8547411,-26.6366024,33.51711815,18.315259596542695
13.0166439,21.40559387,-7.512565613,-28.98785019,36.80942202,18.34251759898423
13.01914995,26.30878639,-2.841775894,-29.5600338,39.67396539,18.372886417727
13.02165599,31.2239418,2.300698996,-28.23829842,42.16194084,18.405854389463776
13.02416208,35.86362457,7.412067413,-24.96312141,44.32037614,18.44084819060026
13.02666812,39.92394638,12.04935741,-19.87328911,46.19584536,18.47736799922636
13.02917416,42.84947205,15.57129383,-13.31605816,47.49589299,18.514602647763397
13.03168021,44.29802704,18.28385735,-5.918347836,48.28707363,18.55202340712106
13.03418625,43.68994904,20.31386757,1.094118118,48.19400333,18.58875526507649
13.03669229,40.69742584,21.28834534,6.880561352,46.44153574,18.623150618890712
13.03919833,36.04547882,20.83341026,10.22034359,42.8691375,18.653408827500567
13.04170437,30.60629463,18.92543221,10.35194874,37.44436003,18.67771945979283
13.04421042,25.02563477,15.7938261,7.565207958,30.54438917,18.694732323225537
13.04671646,20.05305099,12.22194004,2.793919563,23.64966509,18.70459188478976
13.0492225,16.11236954,9.090332985,-3.143570662,18.76498448,18.709415370208713
13.05172859,13.19880962,6.861418724,-8.827122688,17.29756449,18.712771322813758
13.05423463,11.10389328,5.595017433,-13.57687569,18.41011188,18.717287084099837
13.05674068,9.528518677,5.348556995,-16.8041954,20.0444684,18.723501130860004
13.05924672,8.195118904,6.13609457,-18.5422821,21.180837,18.73091145383767
13.06175276,6.567101955,7.172784805,-17.93899155,20.4054671,18.737577241740965
13.0642588,4.587040901,8.190332413,-14.70210075,17.44345883,18.7413842002348
13.06676484,2.267199516,9.212367058,-9.937990189,13.73941591,18.741639670268714
13.06927088,-0.2994019389,9.882955551,-4.9821558,11.07178072,18.739341902141216
13.07177692,-2.937488794,10.30887794,-1.354935765,10.80452016,18.736783365799393
13.07428297,-5.192724228,10.8116703,0.05264209956,11.99413902,18.735283011723734
13.07678901,-6.600601196,10.48385334,-2.013560295,12.55123668,18.73415150515885
13.07929505,-7.625327587,9.044869423,-4.848157883,12.78514445,18.733078269246725
13.08180114,-7.280461788,8.044071198,-8.563612938,13.82199956,18.73293231199105
13.08430719,-5.745765209,7.735397339,-12.19322586,15.54107289,18.734420601941075
13.08681323,-3.473780155,7.998608112,-14.33360577,16.77787634,18.7370270285229
13.08931927,-0.7612167001,8.489435196,-15.40349674,17.60447877,18.740268056806574
13.09182531,2.049452543,8.891729355,-15.48993778,17.97779962,18.743709075818
13.09433135,4.649254322,9.384949684,-15.59043598,18.78176084,18.747777202937527
13.09683739,6.854240417,9.990633011,-14.9967165,19.27938965,18.75211726887659
13.09934344,8.74576664,10.55563831,-13.33520031,19.12426473,18.7561088982696
13.10184948,10.58435154,11.44128132,-11.02014446,19.08860916,18.759901397567642
13.10435552,12.38225937,12.71037483,-8.341080666,19.60733542,18.76411107070138
13.10686156,13.96241951,13.86909962,-5.736194134,20.49890255,18.76916454181225
13.1093676,15.19532108,14.58724499,-3.574278831,21.36494719,18.77511301669836
13.1118737,16.04537201,14.77388477,-2.291127682,21.93104877,18.78175353954836
13.11437974,16.50718689,14.66142273,-2.240878344,22.19157658,18.78888301565243
13.11688578,16.4712944,14.46521091,-3.275176048,22.16467108,18.796236606533736
13.11939182,16.08605003,14.51306725,-4.735395908,22.17688213,18.803866692876785
13.12189786,15.56890011,14.9967165,-6.109773636,22.46378174,18.8120724908966
13.1244039,14.99432373,15.76989746,-7.14885664,22.9047061,18.821023348167184
13.12690995,14.31924915,16.55025673,-7.831110477,23.2438849,18.830602309329393
13.12941599,13.4907341,17.0554409,-8.029714584,23.1811192,18.84039302373853
13.13192203,12.54257774,17.28305817,-7.716254711,22.70596712,18.84994363762782
13.13442807,11.59232807,17.29023743,-6.75613451,21.88560563,18.858900706074923
13.13693411,10.60828018,17.0674057,-5.15922451,20.74727797,18.866993878281782
13.13944021,9.542876244,16.78265953,-3.208176851,19.57080853,18.874285418969944
13.14194625,8.453543663,16.53829193,-1.342971683,18.62205879,18.881139604962737
13.14445229,7.431210041,16.36361694,0.02153540403,17.97195888,18.88794516161404
13.14695833,6.533602238,16.32772446,0.7277171612,17.60148052,18.894974388773605
13.14946437,5.717051506,16.39233017,0.8330013752,17.38065182,18.902214746940324
13.15197042,5.099404335,16.62951851,0.5315057039,17.40193405,18.909762736747062
13.15447646,4.599005222,17.0674057,-0.05264209956,17.67625406,18.91768531269879
13.1569825,4.163212299,17.50559044,-0.7325028181,18.00873659,18.925907617443855
13.15948854,3.775574923,17.99163437,-1.237687469,18.4251389,18.934428689226802
13.16199458,3.349353552,18.31735611,-1.455733418,18.67787097,18.943029624698912
13.16450062,2.839383125,18.41546249,-1.410269856,18.68636445,18.95143862926549
13.16700666,2.343769789,18.36281967,-1.175474167,18.5490739,18.959445082114772
13.16951276,1.927119493,18.24317932,-0.8377870321,18.36380321,18.966978931356135
13.1720188,1.546660781,18.05384636,-0.4405784607,18.12533137,18.973982128800223
13.17452484,1.204187989,17.84806442,-0.03110669367,17.88866792,18.980399006844927
13.17703088,0.9577272534,17.74278069,0.323330164,17.77155171,18.98613379605599
13.17953692,0.742074132,17.61805344,0.6104688644,17.64423853,18.991142850654505
13.18204297,0.6487540603,17.51516342,0.6152545214,17.53796937,18.99552932672736
13.18454901,0.6104688644,17.44816399,0.4501497746,17.46464238,18.99863747432025
13.18705505,0.6152545214,17.4242363,0.3927220106,17.43951775,19.00024555509688
13.18956109,0.5291129351,17.23280907,0.4214358926,17.24608005,19.000817447697187
13.19206713,0.2751746178,16.84965897,0.2922234535,16.85443926,19.00082957124782
13.19457318,0.0,16.42343712,-0.1100698411,16.42380596,19.000642847964933
13.19707922,-0.2249253243,16.02144241,-0.7683951855,16.04143508,19.000108383335316
13.19958526,-0.5338985324,15.61915016,-1.659123421,15.71609334,18.999534350407895
13.20209135,-0.8835497499,15.48275852,-2.523231506,15.71187986,18.999419473529546
13.20459739,-1.321436286,15.4540453,-3.232105255,15.84361746,18.998440993683907
13.20710344,-1.776371717,15.58565044,-3.921537161,16.1693058,18.992490390037748
13.20960948,-2.312663078,15.90628815,-4.388436794,16.66183635,18.97708329141614
13.21211552,-2.973381281,16.41147232,-4.307080746,17.22580519,18.951235049268316
13.21462156,-3.727718592,17.0291214,-3.543172121,17.78878664,18.918212294949136
13.2171276,-4.536791801,17.58216095,-2.394019127,18.31519017,18.8842906789275
13.21963364,-5.482554913,17.61805344,-1.26640141,18.49480975,18.85606075044786
13.22213969,-6.571887493,16.99801445,-0.1268195957,18.22466141,18.83728479614861
13.22464573,-7.759325504,15.77707577,0.8859425783,17.6042082,18.82586297623291
13.22715177,-8.891729355,14.21366596,1.611266971,16.84302028,18.81089575221738
13.22965786,-9.767801285,12.70319653,1.826620936,16.12816443,18.79028336913619
13.2321639,-10.33041382,11.48435211,1.199402332,15.49342954,18.76723362860772
13.23466995,-10.54367352,10.77099228,-0.1531406492,15.07337978,18.746952914446876
13.23717599,-10.62502956,10.46231747,-1.793121457,15.01887561,18.730466094208527
13.23968203,-10.62502956,10.4718895,-3.22492671,15.26276106,18.716619973245333
13.24218807,-10.78056335,10.58913708,-3.931108475,15.61422378,18.705920621975647
13.24469411,-11.19960594,10.57478046,-3.629313707,15.82495097,18.69700094345464
13.24720015,-11.80050373,10.2969141,-2.39162612,15.84292283,18.688078781257236
13.2497062,-12.38465214,9.774979591,-0.6104688644,15.78931622,18.678801394134656
13.25221224,-12.8252306,9.013762474,1.458126307,15.74358873,18.669704845696174
13.25471828,-12.90419388,8.027321815,3.375674486,15.56763609,18.660918803060383
13.25722432,-12.24347496,6.9619174,4.77637291,14.87227996,18.65151291047178
13.25973042,-10.80927753,6.191129684,5.348556995,13.5564608,18.639643096615934
13.26223646,-9.035298347,5.89441967,5.015655518,11.89695758,18.623496199482798
13.2647425,-7.330711365,5.896812439,3.976572037,10.21395375,18.60210110023293
13.26724854,-5.776872158,6.064310074,2.571387053,8.761286434,18.576070204671414
13.26975458,-4.378865242,6.351448536,1.077368379,7.789485345,18.546447828895623
13.27226062,-3.205784082,6.825526714,-0.2033899277,7.543622073,18.51511196301019
13.27476667,-2.271985054,7.428816795,-1.158724308,7.85441768,18.48370876511541
13.27727271,-1.59691,8.11824894,-1.544267893,8.416700703,18.45292376213875
13.27977875,-1.149153113,8.831908226,-1.275972724,8.997291936,18.423344599335675
13.28228479,-0.9912267923,9.468698502,-0.4381856322,9.530518796,18.394742158706165
13.28479083,-1.079761267,9.94277668,0.6248258352,10.0207335,18.366349346032475
13.28729687,-1.319043517,10.26819992,1.546660781,10.46747176,18.338262099640914
13.28980297,-1.632802367,10.46949673,2.059023857,10.79425702,18.312340865804995
13.29230901,-2.013560295,10.51735306,2.204986095,10.93302813,18.291444443020197
13.29481505,-2.525923491,10.34477043,2.176272154,10.86879594,18.277344305424375
13.29732109,-3.131606579,9.926026344,2.023131609,10.60311371,18.26942983374858
13.29982713,-3.756432533,9.325128555,1.764407635,10.20695558,18.263999504361017
13.30233318,-4.431507587,8.577970505,1.381256819,9.75334342,18.255898435189867
13.30483922,-5.235795021,7.519744396,1.103689432,9.229205581,18.24309549304995
13.30734526,-6.188736439,5.805585861,1.271187067,8.580279859,18.22588226072369
13.3098513,-7.129714012,3.715754509,1.252044439,8.136784914,18.206675231188004
13.31235734,-7.541279793,2.08534503,0.06939185411,7.824600951,18.187811446123035
13.31486338,-6.99063158,1.494018674,-1.7883358,7.368796823,18.17149228917009
13.31736948,-5.549553871,2.027917147,-3.169891834,6.705088393,18.158627358391904
13.31987552,-3.653541088,3.394817114,-3.512065411,6.099815503,18.14899192695831
13.32238156,-1.575374603,5.097011566,-3.014059305,6.12746975,18.141370049602354
13.3248876,0.4908277392,6.851847649,-2.250449657,7.228641071,18.134354586991343
13.32739364,2.331805706,8.472685814,-1.649552107,8.941182523,18.129259119693348
13.32989969,3.818645954,9.904491425,-1.345364571,10.70004734,18.127497325707726
13.33240573,4.864907742,11.10867882,-1.335793257,12.20059081,18.128189158728784
13.33491177,5.461019516,12.15254784,-1.59691,13.41854219,18.128191552764548
13.33741781,5.58066082,13.05733395,-2.164308071,14.36391222,18.12558041961865
13.33992385,5.358128071,13.91695595,-2.963809967,15.20445227,18.119673597358837
13.34242989,4.943870544,14.87468243,-3.885644913,16.14918789,18.11116191033894
13.34493599,4.36211586,16.01426506,-4.771587372,17.26999671,18.10252433098202
13.34744203,3.706183195,17.35245132,-5.559125423,18.59427967,18.096060769989364
13.34994807,2.999702215,18.90629005,-6.219843388,20.12790274,18.093100856542904
13.35245411,2.228914261,20.78076744,-6.753741741,21.96409301,18.094672195144863
13.35496015,1.37886405,22.94507599,-7.254140854,24.10394859,18.100909647541872
13.3574662,0.4884349108,25.14527512,-7.771289825,26.32330479,18.110753218848437
13.35997224,-0.3807578981,26.9192543,-8.489435196,28.22873959,18.122728037263197
13.36247828,-1.118046403,27.53211594,-9.573982239,29.17068,18.135168191485576
13.36498432,-1.759621978,26.56721115,-10.90977573,28.77388025,18.146266090548213
13.36749036,-2.291127682,24.19712067,-12.22911835,27.20847754,18.154255744892744
13.3699964,-2.681456804,20.88605118,-13.24188042,24.87498224,18.157986835371137
13.37250245,-3.018844843,17.4242363,-13.57209015,22.29168154,18.157198846504826
13.37500854,-3.258426189,14.38385487,-13.00469208,19.66302718,18.152208025821064
13.37751458,-3.397209883,12.06371403,-11.62104225,17.09160186,18.14366002537148
13.38002062,-3.3852458,10.4790678,-9.731908798,14.69628524,18.13233174964072
13.38252666,-3.100499868,9.569196701,-7.630113125,12.62542083,18.119020245970713
13.38503271,-2.34137702,9.272486687,-5.585446358,11.07511926,18.10490048143934
13.38753875,-1.268794179,9.473484039,-3.715754509,10.25492906,18.091031314299528
13.39004479,-0.06460621208,9.973882675,-2.16670084,10.20671848,18.07826848151186
13.39255083,1.103689432,10.68006516,-1.063011408,10.78943536,18.067163392025552
13.39505687,2.224128723,11.46281719,-0.4310071766,11.68454936,18.057845359748658
13.39756292,3.311068296,12.2602253,-0.294616282,12.70287748,18.050308281261078
13.40006896,4.321437836,13.026227,-0.6272186637,13.73866143,18.044403224018854
13.40257505,5.18793869,13.64866066,-1.302293777,14.65935247,18.039745344726946
13.40508109,5.843871117,14.04138279,-2.145165443,15.35945946,18.035919211656086
13.40758713,6.337091446,14.15145206,-3.100499868,15.81250843,18.032569707053767
13.41009318,6.696314335,13.98156166,-4.167997837,16.05294048,18.029485734626373
13.41259922,6.839883327,13.5409832,-5.207081318,16.03919966,18.026497200033756
13.41510526,6.7704916,12.86351585,-6.171987057,15.79249888,18.02338179390513
13.4176113,6.56470871,12.10947704,-6.937989235,15.42305188,18.020020125614682
13.42011734,6.277271271,11.37906837,-7.455138206,14.98220335,18.016529294472313
13.42262338,5.99491787,10.64895821,-7.828717709,14.51303456,18.012856243506132
13.42512943,5.75772953,10.04327488,-8.106285095,14.13261043,18.009092626812304
13.42763547,5.592624664,9.511769295,-8.324331284,13.82192812,18.005453765602876
13.43014151,5.525625706,9.044869423,-8.573184013,13.6323764,18.00218464777509
13.4326476,5.56630373,8.63779068,-8.827122688,13.54670661,17.99944861048617
13.43515364,5.738586903,8.259724617,-9.075976372,13.54724243,17.997440993645778
13.43765969,6.014060497,7.838288784,-9.270093918,13.54777974,17.996313561927888
13.44016573,6.454638958,7.361817837,-9.370592117,13.55236963,17.995943443505237
13.44267177,7.153642178,6.892525673,-9.44237709,13.70547306,17.99625114585751
13.44517781,7.965108395,6.423233509,-9.44237709,13.92333888,17.997032570232363
13.44768385,8.906085968,6.042774677,-9.337093353,14.24832641,17.998048724076014
13.45018989,9.899705887,5.769693375,-9.253045082,14.7279456,17.999142476278877
13.45269594,10.96271706,5.623731613,-9.363413811,15.47517498,18.000443565900223
13.45520198,12.08554935,5.63090992,-9.39452076,16.31026272,18.0021924125532
13.45770802,13.17458248,5.788836002,-8.994620323,16.97007485,18.00435427741755
13.46021411,14.19452286,5.939883232,-8.664112091,17.65880886,18.007163475655876
13.46272015,15.10200119,5.968596935,-8.463114738,18.31171484,18.010820271516096
13.4652262,15.76750469,5.88694191,-8.149654388,18.69992395,18.015202121373342
13.46773224,16.26072502,5.781657696,-7.673183918,18.88693981,18.02007986251045
13.47023828,16.54547119,5.652445316,-7.124928474,18.88034324,18.02511207870618
13.47274432,16.48804283,5.391627789,-6.439982891,18.50401541,18.029793565063127
13.47525036,16.12433434,5.101797104,-5.695516109,17.84548669,18.033777824416468
13.4777564,15.43968773,4.718646049,-4.864907742,16.86169935,18.036789598476354
13.48026245,14.56092358,4.261617184,-3.978965044,15.68483469,18.038896110693674
13.48276849,13.63430309,3.780360699,-3.291925669,14.52660051,18.04030359802665
13.48527453,12.61675549,3.318246841,-2.913560629,13.36720302,18.040929134950282
13.48778057,11.60429287,2.844168901,-2.801098108,12.27171791,18.04081313349255
13.49028667,10.59631634,2.362912416,-2.932703257,11.24571133,18.04018049210712
13.49279271,9.655338287,2.018345833,-3.148356438,10.35429503,18.039378677849964
13.49529875,8.805587769,1.80508554,-3.418745279,9.6168877,18.038587294459838
13.49780479,8.082356453,1.663909078,-3.77796793,9.07557827,18.037904308481835
13.50031083,7.498209,1.623231053,-4.086641788,8.692448353,18.0373217509842
13.50281687,7.069893837,1.639980793,-4.460221291,8.518597879,18.03706926417028
13.50532292,6.859025955,1.671087503,-4.831408024,8.554605426,18.0373840243057
13.50782896,6.856633186,1.759621978,-5.073082924,8.708952779,18.038352025281245
13.510335,6.978667259,1.809871197,-5.04676199,8.800411186,18.03982600443422
13.51284104,7.223034382,1.915155411,-4.83858633,8.902357194,18.04162586480203
13.51534708,7.66839838,2.169093609,-4.65403986,9.228726229,18.043667158315817
13.51785318,8.233403206,2.477767944,-4.567898273,9.736218823,18.045852707012163
13.52035922,8.949156761,2.822633505,-4.632504463,10.46493021,18.048184180967
13.52286526,9.533304214,2.970988512,-4.527220249,10.96386725,18.050224166011954
13.5253713,9.9140625,3.028416157,-4.053142548,11.13049434,18.05174656678223
13.52787734,10.32323551,3.100499868,-3.64127779,11.37722263,18.053090750729243
13.53038338,10.69442177,3.052344322,-3.483351469,11.65423529,18.054404525155004
13.53288942,11.03450203,3.028416157,-3.428316593,11.94507824,18.05563479865373
13.53539547,11.34796143,3.073879719,-3.447459221,12.25193618,18.05684127166204
13.53790151,11.5325079,3.205784082,-3.54556489,12.4838624,18.05826730182071
13.54040755,11.57557869,3.358924866,-3.782753468,12.63272029,18.060020233890082
13.54291359,11.59472084,3.413959742,-4.165605068,12.78455858,18.061706292263082
13.54541969,11.62822056,3.392424345,-4.634897232,12.96943825,18.062748965997773
13.54792573,11.58754253,3.256033421,-5.030012131,13.04507254,18.06286217975542
13.55043177,11.40060329,3.124428272,-5.180759907,12.90643563,18.06198700283444
13.55293781,11.0871439,3.22492671,-5.010869503,12.58704593,18.06022036215643
13.55544385,10.71595669,3.492922783,-4.625326157,12.18301602,18.05768847408612
13.55794989,10.37348461,3.821038723,-4.122534275,11.79850875,18.054511680081347
13.56045594,10.02413273,4.093820572,-3.509672642,11.38246045,18.050696513470953
13.56296198,9.731908798,4.285545349,-2.939881802,11.03262674,18.046350258977643
13.56546802,9.49980545,4.366901398,-2.477767944,10.74502049,18.041621150097352
13.56797406,9.361021042,4.479363918,-2.114058733,10.59068744,18.036771898236488
13.5704801,9.224330902,4.505684853,-1.795514345,10.4217728,18.03188139136051
13.5729862,9.035298347,4.520041943,-1.623231053,10.23241293,18.027018392475128
13.57549224,8.786444664,4.534399033,-1.563410521,10.01032651,18.022243935208383
13.57799828,8.647361755,4.60379076,-1.505982757,9.911596176,18.017688587671696
13.58050432,8.63779068,4.807479858,-1.438983679,9.989692911,18.01345808352393
13.58301036,8.781659126,5.178367138,-1.386042476,10.28854397,18.00953338400257
13.5855164,9.09990406,5.664409637,-1.517946839,10.82580034,18.005797253406197
13.58802245,9.538089752,6.222236156,-1.90079844,11.54575306,18.002034943025134
13.59052849,9.973882675,6.765706062,-2.578565598,12.32485759,17.99794334334912
13.59303453,10.37827015,7.270890713,-3.485744476,13.14247913,17.993140286931716
13.59554057,10.71117115,7.68275547,-4.565505505,13.94983009,17.987171449126024
13.59804666,10.85234833,7.991429329,-5.688337803,14.62851988,17.97937403196724
13.60055271,10.80927753,8.15444088,-6.768098831,15.13745516,17.969160021971522
13.60305875,10.56042385,8.247760773,-7.694719315,15.45175767,17.956393409045287
13.60556479,10.13659477,8.269295692,-8.436793327,15.5663511,17.941565566813633
13.60807083,9.559625626,8.257331848,-8.906085968,15.45601302,17.925800836159297
13.61057687,8.874979019,8.293224335,-9.073583603,15.16155473,17.9105058089676
13.61308292,8.149654388,8.365009308,-8.932407379,14.70299796,17.896727731661418
13.61558896,7.416852951,8.482256889,-8.563612938,14.1525212,17.8849430670715
13.618095,6.744170666,8.668897629,-8.020143509,13.59986492,17.875293423394343
13.62060104,6.198307991,8.941978455,-7.35463953,13.1327348,17.867823584358174
13.62310708,5.817550182,9.224330902,-6.751348972,12.82625759,17.862583444067603
13.62561312,5.621338367,9.49262619,-6.289235115,12.69897143,17.859458723031274
13.62811922,5.633302689,9.674481392,-5.99491787,12.69916256,17.858161751836302
13.63062526,5.860620975,9.77737236,-5.815157413,12.79687244,17.858300891892412
13.6331313,6.294020653,9.751050949,-5.683551788,12.92286545,17.859168255068223
13.63563734,6.926024914,9.581160545,-5.530411243,13.05196947,17.860167443723224
13.63814338,7.776075363,9.274879456,-5.350949764,13.23341983,17.860965823289085
13.64064943,8.757730484,8.855836868,-5.116153717,13.46472126,17.861423870356212
13.64315547,9.818050385,8.388936996,-4.862514496,13.79900085,17.861608444943002
13.64566151,10.90020466,7.878966808,-4.551148891,14.19878642,17.861687586985457
13.64816755,11.94885921,7.311568737,-4.264009953,14.64295239,17.86194858168018
13.65067359,12.95683575,6.653243542,-3.998107433,15.10397647,17.862660636078495
13.65317963,13.87627792,5.88694191,-3.660719633,15.51154545,17.863952215924375
13.65568568,14.79063511,5.080261707,-3.198605776,15.9625507,17.865993034330945
13.65819177,15.65982819,4.206283092,-2.513660192,16.4085808,17.868794873714688
13.66069781,16.44497299,3.279961586,-1.690230131,16.85384712,17.872278273890004
13.66320385,17.05783463,2.233700037,-0.8401798606,17.22396703,17.87621477427093
13.66570989,17.39552116,1.103689432,-0.06460621208,17.43061849,17.880188599476437
13.66821594,17.37398529,-0.09092725813,0.5003990531,17.38142779,17.883680917522238
13.67072198,16.8664093,-1.321436286,0.8353942037,16.93870834,17.886297869004814
13.67322802,15.85843182,-2.580958366,1.05822587,16.10189578,17.887766551495343
13.67573406,14.7140646,-3.69900465,1.07497561,15.20992784,17.88793965898771
13.6782401,13.69412422,-4.642076015,0.8428717852,14.48407197,17.886986047944717
13.68074614,12.82283783,-5.398806095,0.304187566,13.91635036,17.885169166115734
13.68325224,12.24347496,-5.877370834,-0.4908277392,13.58996243,17.88288690023874
13.68575828,11.96800137,-6.124130249,-1.486840129,13.52585382,17.88051108029851
13.68826432,12.02064323,-6.028417587,-2.741277456,13.72414968,17.878209966372673
13.69077036,12.27697468,-5.595017433,-4.127319813,14.10897219,17.87603590793668
13.6932764,12.58564854,-4.836193562,-5.453841209,14.54412944,17.87396837506388
13.69578245,12.69123173,-3.758825302,-6.40648365,14.7050727,17.871759838700076
13.69828849,12.31286716,-2.011167526,-6.277271271,13.96623168,17.86858361812289
13.70079453,11.6521492,-0.05503492057,-5.453841209,12.86545739,17.864123984253364
13.70330057,10.88345432,1.812264085,-5.099404335,12.15474408,17.858845001251108
13.70580661,10.18923664,3.105285645,-4.99651289,11.76556345,17.853216654411803
13.70831265,9.420842171,3.579064369,-5.970989704,11.7138673,17.847786902654843
13.7108187,8.625826836,4.409972191,-8.171190262,12.67363774,17.84372325315057
13.71332479,7.582256794,6.011667728,-10.31127071,14.14047633,17.841660359407577
13.71583083,6.195915222,7.526922703,-11.57318592,15.13216981,17.841187774081344
13.71833687,4.998905659,9.2362957,-11.15892887,15.32383469,17.841575805552267
13.72084292,5.053940296,13.05972672,-10.60588741,17.56654839,17.844862752338326
13.72334896,6.538387775,20.72094727,-11.79811096,24.72455445,17.855943955216222
13.725855,8.40329361,31.16651535,-15.47558022,35.7974944,17.87870379983519
13.72836104,9.585947037,42.5049057,-19.86132431,47.88558857,17.913984167370085
13.73086708,9.159725189,52.6582489,-21.47977066,57.6035788,17.959315085203762
13.73337312,5.903990746,57.97539902,-18.90389633,61.26468228,18.008587360930306
13.73587916,-0.5769693851,55.35166931,-11.80768204,56.60001364,18.053513991772085
13.73838526,-10.16530895,46.51976395,6.945167542,48.12127696,18.09036050752457
13.7408913,-18.7432785,33.43132019,28.01815796,47.47610803,18.12691718200581
13.74339734,-20.37129593,18.98286057,38.21457291,47.28310772,18.163562796524918
13.74590338,-14.15863037,7.206284523,37.29513168,40.53793529,18.193561791887564
13.74840942,-6.588637352,-0.4836492836,30.88625526,31.58488282,18.214412065328535
13.75091547,0.2994019389,-4.984548569,22.1309166,22.68728356,18.225910902955892
13.75342151,6.112166405,-7.625327587,13.32323647,16.52309986,18.230689700924007
13.75592755,10.54367352,-9.569196701,5.638088226,15.31426183,18.233685597344195
13.75843359,13.87388515,-11.26421261,-0.5243272781,17.87853725,18.238556952558522
13.76093963,16.66780472,-12.61196995,-5.583053589,21.63441673,18.24649258850693
13.76344568,18.89911079,-14.48435402,-11.07757282,26.26186436,18.25831512559617
13.76595177,20.61805534,-16.92144394,-16.47847176,31.35250393,18.274612838054832
13.76845781,22.0806675,-19.09771538,-20.45504379,35.64670288,18.29473735489377
13.77096385,22.76800728,-20.26361847,-21.84617233,37.50002179,18.31636198063604
13.77346989,22.4638195,-19.99322891,-21.45105743,36.93914257,18.337128967370923
13.77597594,21.62124634,-18.52553177,-20.16312027,34.88875234,18.355788360696803
13.77848198,20.8381958,-16.31575966,-18.91107559,32.52788339,18.372276642787455
13.78098802,20.58694839,-13.77817154,-19.08575249,31.27181484,18.387930862017146
13.78349406,20.99612045,-10.83320522,-20.75923157,31.45061374,18.404354495080057
13.7860001,22.23889351,-7.175177574,-22.68156624,32.56539582,18.422506739750194
13.78850614,24.49412918,-2.726920605,-24.03440857,34.42457343,18.44305620064678
13.79101224,27.53690147,2.248056889,-23.59143639,36.33029828,18.465957949563137
13.79351828,30.83839989,7.318747044,-20.90040779,37.96574788,18.490896151095676
13.79602432,34.16860962,12.39422321,-16.26311874,39.81958919,18.518084107428262
13.79853036,37.03910065,17.02433395,-9.926026344,41.95532055,18.54785021788382
13.8010364,38.59293747,20.57977104,-2.350948334,43.80032827,18.579953620894393
13.80354245,38.25525284,22.63370895,4.819443703,44.70991152,18.61342590971355
13.80604849,35.74877167,22.59542465,9.859027863,43.42497348,18.645980492737774
13.80855453,31.76023483,20.5749855,10.99382401,39.40693735,18.674758648432427
13.81106057,27.11067963,17.2495594,7.941180229,33.09982769,18.697330058032083
13.81356661,22.72972107,13.44527054,2.207378864,26.50071775,18.713259851064947
13.81607265,18.97807503,9.830313683,-4.536791801,21.84913908,18.724387108428132
13.81857875,16.01187134,7.136892796,-10.90259743,20.64417335,18.734035577638036
13.82108479,13.93131256,5.595017433,-16.20329857,22.08919587,18.744771980665384
13.82359083,12.58804131,5.219045162,-20.04587173,24.23910456,18.757262179133107
13.82609687,11.6330061,5.685945034,-21.90599251,25.44659721,18.77060708047687
13.82860292,10.73270702,6.476174355,-21.53001976,24.91332144,18.78310996748763
13.83110896,10.03848934,8.082356453,-18.80579185,22.79810434,18.79324127670159
13.833615,9.097511292,9.289237022,-14.69492245,19.62129919,18.800064681841523
13.83612104,7.301997185,10.31844902,-8.518149376,15.24297943,18.802442497482883
13.83862708,4.948656559,11.22114182,-1.299900889,12.33259777,18.801931327118965
13.84113312,2.319841623,11.86271763,5.219045162,13.16602321,18.80227012810366
13.84363916,-0.3496512175,11.95125198,9.078369141,15.0123771,18.804297853900618
13.84614526,-2.695813894,11.56600761,8.920442581,14.85308859,18.805787120514132
13.8486513,-4.17517662,10.89541912,4.613361835,12.54692652,18.80433581263495
13.85115734,-4.725824833,9.789336205,-1.649552107,10.99479631,18.80054157907797
13.85366338,-4.386044025,8.87258625,-8.293224335,12.91269681,18.797702546778094
13.85616943,-3.442673683,8.388936996,-13.85713482,16.56038802,18.797440432797302
13.85867547,-2.13559413,9.011369705,-17.18255997,19.51937277,18.7991529190634
13.86118151,-0.6104688644,10.55563831,-18.604496,21.39909914,18.801944874825228
13.86368755,1.012762189,12.23868942,-18.61885262,22.30410004,18.80510199211443
13.86619359,2.62402916,13.98873997,-17.80020714,22.79073823,18.80843920046162
13.86869963,4.036392689,15.35564041,-16.05254936,22.57814207,18.81146505321968
13.87120568,5.312365532,16.2320118,-13.25384426,21.61859899,18.813596818051234
13.87371172,6.437590122,16.61277008,-9.439984322,20.16283711,18.814445894462533
13.87621781,7.328318596,16.53111458,-5.09461832,18.78662126,18.814212076991307
13.87872385,8.010572433,16.13869095,-1.522732496,18.08162964,18.81372768223134
13.88122989,8.546863556,15.58086491,0.2751746178,17.77323687,18.813649254378177
13.88373594,8.98026371,15.02064514,0.06939185411,17.50056376,18.81417993233718
13.88624198,9.473484039,14.58245945,-1.659123421,17.46847772,18.815554460867784
13.88874802,9.971489906,14.34078407,-4.158426762,17.95497736,18.818078196700455
13.89125406,10.47428226,14.31207085,-6.643671989,18.9389635,18.821958333317006
13.8937601,10.95314598,14.42692566,-8.345866203,19.94394829,18.827087721011935
13.89626614,11.41256714,14.59203053,-9.004191399,20.59731794,18.833055551371174
13.89877219,11.7526474,14.53938866,-8.748159409,20.64095047,18.839276262063578
13.90127828,11.80050373,14.19691563,-7.809575081,20.04479395,18.84517896496813
13.90378432,11.54925728,13.52662659,-6.492924213,18.93444046,18.850288366108334
13.90629036,11.08235836,12.70080376,-5.178367138,17.63362042,18.854449100693728
13.9087964,10.50538826,11.9225378,-4.220939159,16.44160629,18.85772824993616
13.91130245,9.961918831,11.24746323,-3.787539244,15.49486074,18.860198739061726
13.91380849,9.475876808,10.66331482,-3.837788343,14.77251311,18.861819432907673
13.91631453,9.085547447,10.27059269,-4.012464523,14.28748117,18.862509238876534
13.91882057,8.829515457,10.17009449,-4.050749779,14.06412951,18.862184302549327
13.92132661,8.678468704,10.33280659,-3.785146236,14.01463674,18.860689529091353
13.92383265,8.577970505,10.73270702,-3.437887907,14.16303821,18.858142357635995
13.9263387,8.379365921,11.22592735,-3.423531055,14.42067207,18.85540968368823
13.92884479,8.140083313,11.81246853,-3.866502285,14.85749673,18.852891928279945
13.93135083,7.826324463,12.4803648,-4.613361835,15.43677322,18.85054015725128
13.93385687,7.450352192,13.22513103,-5.300401211,16.07812463,18.84850670721372
13.93636292,6.964310169,14.0485611,-5.784050465,16.71283713,18.847122698924164
13.93886896,6.351448536,14.75952816,-6.006882191,17.15421825,18.846571310260302
13.941375,5.618945599,15.29581928,-6.018846035,17.37127355,18.84663470652122
13.94388104,4.848157883,15.71247005,-5.760122299,17.42312713,18.847440135885833
13.94638708,4.012464523,15.95414543,-5.391627789,17.31196922,18.848856050368333
13.94889312,3.172284603,16.02862167,-5.025226593,17.09482391,18.848332562734804
13.95139917,2.32701993,15.9373951,-4.735395908,16.78807787,18.839104508559203
13.95390526,1.541875124,15.76511192,-4.599005222,16.49445306,18.81483068484247
13.9564113,0.9098708034,15.58565044,-4.455435753,16.23549421,18.77373988034925
13.95891734,0.3496512175,15.36521149,-4.187140465,15.92934792,18.719948046938665
13.96142338,-0.1172483116,15.14985752,-3.878466368,15.63887565,18.662510883621877
13.96392943,-0.4166502357,15.09482288,-3.567100286,15.51616833,18.61250306596257
13.96643547,-0.5650052428,15.20010662,-3.315854073,15.56783095,18.580417242930128
13.96894151,-0.7109674215,15.25514126,-3.030808926,15.56954117,18.551534310329007
13.97144755,-0.8955138922,15.23121357,-2.707777977,15.49593087,18.515097178067006
13.97395359,-1.146760225,15.15703583,-2.367697954,15.38365326,18.476457552916727
13.97645963,-1.450947881,15.03021622,-2.051845312,15.23885555,18.442695977077417
13.97896568,-1.845763564,14.87946892,-1.917548299,15.11563528,18.4194421536754
13.98147177,-2.190629244,14.85284805,-2.00638175,15.14699705,18.406943549090908
13.98397781,-2.55942297,14.79063511,-2.090130568,15.15526901,18.398338590334927
13.98648385,-2.925524712,14.8337059,-2.238485575,15.28425148,18.390606855002247
13.98898989,-3.179463148,15.04696655,-2.329412937,15.55462481,18.38169956426639
13.99149594,-3.423531055,15.41785336,-2.19780755,15.94556757,18.371895513121604
13.99400198,-3.746861219,15.65264893,-1.750050664,16.18972096,18.362504317097905
13.99650802,-4.323830605,15.58325768,-1.012762189,16.20367607,18.354498477426173
13.99901406,-5.053940296,15.34128284,-0.03589234129,16.15235463,18.3475447235788
14.0015201,-5.87258482,14.85284805,0.8859425783,15.99622587,18.340773650456015
14.00402614,-6.69152832,14.1059885,1.611266971,15.69559314,18.333353326819033
14.00653219,-7.400103092,13.18415356,2.111665964,15.26573169,18.324634520875314
14.00903828,-7.893323898,12.23390388,2.389233351,14.75403004,18.313447685512273
14.01154432,-8.137690544,11.52293682,2.480160713,14.32310293,18.29831595351676
14.01405036,-8.245368004,11.15174961,2.173879385,14.03828211,18.278371371147962
14.0165564,-8.250153542,11.04885864,1.345364571,13.85468573,18.253833519285717
14.01906245,-8.185546875,11.03928757,0.2608176768,13.74543828,18.225754202849394
14.02156849,-8.197511673,11.06800079,-0.5147559643,13.78277232,18.195044158513788
14.02407453,-8.336295128,11.08235836,-0.5291129351,13.87776797,18.16260804092619
14.02658057,-8.570791245,11.00818062,0.1531406492,13.95213085,18.129679374798854
14.02908661,-8.906085968,10.7925272,1.299900889,14.05299801,18.097325628129948
14.03159265,-9.2362957,10.44796085,2.585743904,14.18291634,18.065363661177013
14.0340987,-9.416056633,9.947562218,3.758825302,14.20369263,18.03368088620926
14.03660479,-9.107083321,9.339486122,4.630111694,13.84207,18.00293944363552
14.03911083,-8.238189697,8.839086533,5.04676199,13.09454187,17.974771354566734
14.04161687,-7.053143978,8.625826836,4.936692238,12.18698727,17.950835090685246
14.04412292,-5.762515068,8.6593256,4.41236496,11.29864878,17.93176935031637
14.04662896,-4.527220249,8.841479301,3.739682674,10.6137979,17.91582645813834
14.049135,-3.406781197,9.040083885,3.119642496,10.15191825,17.901794292134174
14.05164104,-2.43708992,9.284450531,2.523231506,9.925075626,17.88866964483672
14.05414708,-1.584945917,9.624231339,1.876870275,9.932800433,17.876471265342094
14.05665312,-0.9529415965,9.978668213,1.309472203,10.10923511,17.86521637128504
14.05915922,-0.6008976102,10.24427223,0.9242277741,10.30341635,17.85575403933277
14.06166526,-0.4812564552,10.48624611,0.7325028181,10.52280978,17.848577394959914
14.0641713,-0.5338985324,10.71834946,0.6176473498,10.7493977,17.843863527371823
14.06667734,-0.7683951855,11.00578785,0.5434698462,11.04595658,17.841363332388244
14.06918338,-1.079761267,11.29053402,0.371186614,11.34811977,17.840259806911472
14.07168942,-1.51555407,11.53729343,0.1531406492,11.63741793,17.839746750965528
14.07419547,-2.047059774,11.64257812,-0.06939185411,11.82137447,17.838709027005418
14.07670151,-2.621636391,11.52772236,-0.3257229924,11.82655722,17.835917693702946
14.07920755,-3.337389469,10.89063358,-0.5147559643,11.40215076,17.829903141683833
14.08171359,-4.208974838,9.425627708,-0.794716239,10.35323625,17.819510242115097
14.08421963,-5.063511848,7.488637447,-1.711765528,9.200488263,17.80565087153076
14.08672568,-5.453841209,5.999703884,-3.468994617,8.81899962,17.79030602678419
14.08923177,-5.128118038,5.499304771,-5.367699623,9.238622561,17.774286093730847
14.09173781,-4.124927044,6.02363205,-6.471388817,9.755923298,17.758470357412264
14.09424385,-2.769991398,7.270890713,-6.408876419,10.08029767,17.743750735387586
14.09674989,-1.381256819,8.834300995,-5.463412285,10.47862674,17.73098872044425
14.09925594,-0.1890329868,10.4288187,-4.206283092,11.24672443,17.720997448988573
14.10176198,0.6750751138,11.95125198,-2.944667339,12.32717389,17.714022860115005
14.10426802,1.18743825,13.31366539,-1.924726725,13.50437961,17.70980247544943
14.10677406,1.3310076,14.52024555,-1.342971683,14.64283733,17.707815500934192
