Time (s),Acceleration x (m/s^2),Acceleration y (m/s^2),Acceleration z (m/s^2),Absolute acceleration (m/s^2),magnitude
9.670544692,5.1735816,8.925228119,-4.510470867,11.25921805,
9.673050681,5.889334679,9.006584167,-4.934299469,11.83850213,
9.675556671,6.643671989,9.193224907,-4.96779871,12.38276164,
9.67806266,7.385746002,9.449555397,-4.989334106,12.98987283,
9.68056865,8.012965202,9.823135376,-5.008476734,13.63034993,
9.68307464,8.278866768,9.9643116,-4.721039295,13.7882324,
9.685580629,8.108677864,9.847063065,-3.911965847,13.34236802,
9.688086671,7.828717709,9.774979591,-3.454637766,12.9912882,
9.69059266,7.464709282,9.681659698,-3.085843801,12.60868158,
9.69309865,7.120142937,9.676874161,-2.772384167,12.32981926,
9.69560464,6.837490559,9.815657616,-2.57617259,12.23662849,
9.698110629,6.684350014,9.976275444,-2.607279301,12.28838932,
9.700616619,6.492924213,10.11984539,-2.801098108,12.3456667,
9.703122608,6.258128643,10.1964159,-3.037987471,12.34343709,
9.705628598,5.855835438,10.16052341,-3.296711445,12.18176305,
9.708134588,5.321936607,10.03609657,-3.502494097,11.88754426,
9.710640577,4.68275404,9.8638134,-3.5766716,11.4898033,
9.713146567,3.990929127,9.691230774,-3.636492252,11.09376154,
9.715652556,3.356531858,9.495018959,-3.775574923,10.75530832,
9.718158546,2.679064035,9.274879456,-3.751646757,10.35739477,
9.720664535,2.044667006,9.056833267,-3.66789794,9.983003921,
9.723170577,1.613659739,8.891729355,-3.622135162,9.735841608,
9.725676567,1.398006678,8.798408508,-3.725325823,9.656317488,
9.728182556,1.366899967,8.803194046,-3.868895054,9.712517175,
9.730688546,1.455733418,8.846264839,-3.96939373,9.804674802,
9.733194535,1.601695657,8.896514893,-4.230510235,9.980512164,
9.735700525,1.80508554,8.910871506,-4.472185612,10.132246,
9.738206515,2.013560295,8.946763992,-4.661218643,10.28717504,
9.740712504,2.23130703,8.997013092,-4.891228676,10.48089183,
9.743218494,2.389233351,9.023334503,-5.0324049,10.60443778,
9.745724483,2.472982168,9.035298347,-5.025226593,10.63038849,
9.748230473,2.506481647,9.052047729,-4.888835907,10.58880233,
9.750736463,2.51844573,9.037691116,-4.651647091,10.47187902,
9.753242452,2.508874655,9.073583603,-4.388436794,10.38666207,
9.755748494,2.477767944,9.116654396,-4.208974838,10.34254275,
9.758254483,2.45383954,9.282057762,-4.139284134,10.45521869,
9.760760473,2.39162612,9.39452076,-4.228117466,10.57609914,
9.763266463,2.169093609,9.212367058,-3.888037682,10.23178923,
9.765772452,1.97527504,9.049654961,-3.751646757,9.993638966,
9.768278442,1.905584097,8.946763992,-3.813860178,9.910669308,
9.770784431,1.888834357,8.934800148,-3.806681633,9.893895793,
9.773290421,1.917548299,8.939585686,-3.634099483,9.838692127,
9.77579641,1.919941068,8.925228119,-3.36849618,9.731014191,
9.7783024,1.951047778,9.013762474,-3.394817114,9.827476004,
9.78080839,1.965703845,9.224330902,-3.607778311,10.09793724,
9.783314379,1.903191328,9.41366291,-3.696611881,10.29097304,
9.785820421,1.754836321,9.554840088,-3.730111361,10.40615925,
9.78832641,1.424626827,9.375378609,-3.421138287,10.08124362,
9.7908324,1.165902853,9.12861824,-3.061915636,9.698779707,
9.79333839,1.125224829,9.061619759,-3.165106058,9.664211293,
9.795844379,1.259222865,9.217152596,-3.258426189,9.856920687,
9.798350369,1.474876046,9.447162628,-3.114856958,10.05616602,
9.800856358,1.673480392,9.698409081,-2.961417198,10.27762945,
9.803362348,1.785943031,9.882955551,-2.994916677,10.48007294,
9.805868338,1.754836321,9.957133293,-2.999702215,10.54619208,
9.808374327,1.592124343,9.99302578,-2.930310488,10.5348063,
9.810880317,1.287936807,9.954740524,-2.743670225,10.40592939,
9.813386358,0.9122636318,9.825528145,-2.429911375,10.16256353,
9.815892348,0.5578267574,9.715159416,-2.271985054,9.99286792,
9.818398338,0.1770688742,9.607481956,-2.147558212,9.846170281,
9.820904327,-0.1938186288,9.57158947,-2.106880426,9.802644326,
9.823410317,-0.5769693851,9.562018394,-2.26241374,9.842946987,
9.825916306,-0.9194421172,9.497411728,-2.417947292,9.843407563,
9.828422296,-1.213759303,9.382556915,-2.549851656,9.79833299,
9.830928285,-1.431805253,9.361021042,-2.762812853,9.864680232,
9.833434275,-1.561017632,9.368199348,-2.987738132,9.95622992,
9.835940265,-1.651944876,9.145368576,-2.695813894,9.676471507,
9.838446254,-1.604088426,8.910871506,-2.370090723,9.359169873,
9.840952244,-1.359721422,8.836693764,-2.410768747,9.260011068,
9.843458285,-1.029511929,8.898907661,-2.619243383,9.333321396,
9.845964275,-0.6439684033,9.056833267,-2.868097067,9.521917082,
9.848470265,-0.3113660514,9.26530838,-3.215355396,9.812308522,
9.850976254,-0.1124626622,9.2362957,-3.174677372,9.76731194,
9.853482244,0.002392822644,8.968298912,-2.920739174,9.431919657,
9.855988233,0.1818545163,8.762516975,-2.820240498,9.206982745,
9.858494223,0.4022932947,8.72423172,-3.037987471,9.246806307,
9.861000213,0.608076036,8.721838951,-2.932703257,9.221766617,
9.863506202,0.8668000102,8.654540062,-2.695813894,9.106031984,
9.866012192,1.082154036,8.286046028,-2.252842426,8.65476257,
9.868518181,1.41984117,8.185546875,-2.40598321,8.649154976,
9.871024171,1.793121457,8.379365921,-3.167499065,9.135759855,
9.873530213,2.10209465,8.793622971,-3.770789385,9.796196173,
9.876036202,2.240878344,8.831908226,-3.392424345,9.722791862,
9.878542192,2.271985054,8.760123253,-2.702992201,9.44499033,
9.881048181,2.346162558,9.018548965,-2.937488794,9.770749439,
9.883554171,2.305484533,9.497411728,-3.253640652,10.30059542,
9.88606016,2.130808592,9.88534832,-2.851347208,10.50669489,
9.88856615,1.776371717,9.947562218,-2.097309113,10.32028081,
9.89107214,1.381256819,9.847063065,-1.587338686,10.06936768,
9.893578129,1.070189953,9.832706451,-1.93190515,10.07768228,
9.896084119,0.7923234105,9.916455269,-2.664707184,10.29876332,
9.898590108,0.5291129351,10.00020409,-2.868097067,10.41681444,
9.901096098,0.3113660514,10.14138031,-2.927917719,10.56017261,
9.90360214,0.1220339537,10.13898754,-2.714956284,10.49690184,
9.906108129,-0.03349951655,10.16770172,-2.813062191,10.54972035,
9.908614119,-0.2153540403,10.24905777,-2.982952595,10.67649609,
9.911120108,-0.3807578981,10.50778198,-3.133999348,10.9718007,
9.913626098,-0.5865406394,10.7614212,-3.265604734,11.26127837,
9.916132088,-0.7707880139,10.95793152,-3.212962627,11.44523945,
9.918638077,-0.9457631707,11.05125141,-3.141177893,11.52786295,
9.921144067,-1.01036942,11.14935684,-3.205784082,11.64500133,
9.923650056,-0.9409775138,11.35992527,-3.622135162,11.96048511,
9.926156046,-0.8282157183,11.49153042,-3.785146236,12.12718206,
9.928662035,-0.7229315639,11.55882931,-3.36849618,12.06134037,
9.931168077,-0.6678966284,11.6019001,-3.073879719,12.02076987,
9.933674067,-0.5769693851,11.5899353,-2.856132984,11.95060624,
9.936180056,-0.5003990531,11.52532959,-2.779562712,11.86632168,
9.938686046,-0.4908277392,11.47717381,-2.616850615,11.78194965,
9.941192035,-0.5458626747,11.43171024,-2.403590441,11.69440944,
9.943698025,-0.6200401783,11.48195934,-2.441875458,11.75510935,
9.946204015,-0.6535396576,11.43410301,-2.32701993,11.68678089,
9.948710004,-0.6750751138,11.47717381,-2.288734913,11.7226086,
9.951215994,-0.6870391965,11.36949635,-2.032702923,11.57019236,
9.953721983,-0.684646368,11.26660538,-1.766800404,11.42482915,
9.956227973,-0.6511468887,11.31924725,-1.747657895,11.47186378,
9.958733963,-0.5913262963,11.39821053,-1.599302888,11.52504402,
9.961240004,-0.4812564552,11.52532959,-1.482054472,11.63018983,
9.963745994,-0.3592225015,11.8148613,-1.599302888,11.92802406,
9.966251983,-0.2440679073,12.08315659,-1.886441588,12.2319624,
9.968757973,-0.1196411327,12.32961655,-2.13559413,12.51377323,
9.971263963,-0.01196411345,12.58564854,-2.075773716,12.75568613,
9.973769952,0.0382851623,12.78694534,-1.893620014,12.9264548,
9.976275942,0.009571290575,12.9759779,-1.872084618,13.11033161,
9.978781931,-0.05503492057,13.13151169,-1.90079844,13.26848382,
9.981287921,-0.1914258152,13.2203455,-1.860120535,13.35193721,
9.98379391,-0.4022932947,13.30409431,-1.85294199,13.43853264,
9.9862999,-0.6463612318,13.36630726,-1.80508554,13.50312136,
9.988805942,-0.8452646136,13.49551964,-1.958226204,13.66302208,
9.991311931,-1.108475089,13.59362507,-2.183450699,13.8124153,
9.993817921,-1.357328653,13.63430309,-2.336591244,13.89950433,
9.99632391,-1.527518153,13.81167126,-2.408375978,14.10304398,
9.9988299,-1.623231053,14.19452286,-2.528316259,14.50902276,
10.00133589,-1.735693693,14.55613804,-2.482553482,14.867981,
10.00384188,-1.8840487,15.00150204,-2.226521492,15.28241149,
10.00634787,-1.992024899,15.54975796,-2.037488461,15.80868416,
10.00885386,-2.049452543,16.05494308,-1.996810555,16.30793382,
10.01135985,-2.003988981,16.77787399,-2.46819663,17.07644642,
10.01386584,-2.082952023,17.76670837,-3.375674486,18.20411475,
10.01637183,-2.45383954,18.77199364,-4.378865242,19.4315088,
10.01887787,-3.117249727,19.82782555,-5.281258583,20.75455622,
10.02138386,-4.105784416,20.68744659,-5.532804012,21.80458283,
10.02388985,-5.298008442,21.30988121,-5.152046204,22.55489993,
10.02639584,-6.571887493,21.63081741,-4.407579422,23.03277499,
10.02890183,-7.742575645,21.62603188,-3.619742393,23.25371513,
10.03140782,-8.700303078,21.32423782,-2.832204819,23.20430513,
10.03391381,-9.346664429,20.79033852,-2.159522533,22.89676504,
10.0364198,-9.684052467,20.04347801,-1.67587316,22.32331592,
10.03892578,-9.686445236,19.22692871,-1.594517231,21.5880637,
10.04143178,-9.428020477,18.44896126,-2.008774519,20.81554507,
10.04393776,-8.968298912,17.75474358,-2.769991398,20.08318095,
10.04644381,-8.247760773,17.41705704,-3.488137245,19.58434413,
10.0489498,-7.373782158,17.68774414,-3.87368083,19.5508148,
10.05145578,-6.602993965,18.48006821,-3.92392993,20.01273785,
10.05396178,-6.104988098,19.53111649,-3.737289906,20.8015078,
10.05646776,-5.827121258,20.48884392,-3.457030535,21.58006319,
10.05897375,-5.549553871,21.13520432,-3.090928555,22.06916965,
10.06147974,-5.106582642,21.34098625,-2.913560629,22.13602756,
10.06398573,-4.359723091,21.08016968,-3.265604734,21.7725725,
10.06649172,-3.349353552,20.55105591,-4.386044025,21.2791318,
10.06899771,-2.226521492,19.95494461,-6.037988663,20.96698642,
10.0715037,-1.163509965,19.44018936,-7.642077446,20.92070901,
10.07400974,-0.1387837082,19.07857323,-8.539685249,20.90304862,
10.07651573,0.8548358679,18.79861259,-8.453543663,20.62961416,
10.07902172,1.687837243,18.36042786,-7.40488863,19.86923454,
10.08152771,2.271985054,17.43859291,-5.784050465,18.51274368,
10.0840337,2.944667339,16.19133377,-4.100998878,16.9602048,
10.08653969,4.079463482,15.11875057,-2.923131943,15.92995108,
10.08904568,5.532804012,14.57049561,-2.691028118,15.81622252,
10.09155167,6.899703979,14.36949825,-3.198605776,16.25790497,
10.09405766,7.819146156,14.22562981,-4.242474556,16.77814592,
10.09656365,8.305188179,13.94566917,-5.755336761,17.22154873,
10.09906964,8.539685249,13.84038544,-7.287640572,17.82111664,
10.10157568,8.678468704,14.30967808,-8.360222816,18.70764633,
10.10408167,8.53729248,15.07807255,-8.925228119,19.49085251,
10.10658766,7.912466049,15.69811249,-9.071190834,19.78191997,
10.10909365,6.777669907,16.55025673,-8.625826836,19.85579754,
10.11159964,5.26690197,18.58774567,-7.756932735,20.81861068,
10.11410563,3.382853031,21.14477539,-6.995417118,22.52734076,
10.11661162,1.1395818,21.62364006,-5.973382473,22.4624521,
10.11911761,-0.555433929,17.41944885,-2.195414782,17.56603402,
10.1216236,-0.03349951655,9.794121742,2.236092806,10.04619599,
10.12412959,2.236092806,2.396411896,2.688635349,4.239299594,
10.12663563,5.202295303,-2.963809967,-0.01914258115,5.987354373,
10.12914162,8.379365921,-6.028417587,-3.344567776,10.85088593,
10.13164761,11.51097202,-6.744170666,-5.63090992,14.4807963,
10.1341536,14.23280811,-5.149653435,-6.519245148,16.48005809,
10.13665959,16.26311874,-1.742872238,-6.480959892,17.59344981,
10.13916558,17.3620224,2.604886532,-6.181558132,18.61281592,
10.14167157,17.51994896,6.964310169,-5.88694191,19.75110915,
10.14417756,16.86401558,10.53170967,-5.638088226,20.6663971,
10.14668355,15.6741848,13.08126259,-5.168796062,21.05981844,
10.14918954,13.83320713,14.59681606,-3.797110319,20.46564696,
10.15169553,11.41496086,14.90818214,-2.315055847,18.91863393,
10.15420152,8.599505424,13.95045471,-1.738086581,16.47991581,
10.15670756,5.647659779,12.10229874,-1.860120535,13.48412934,
10.15921355,2.839383125,9.873384476,-1.924726725,10.45229116,
10.16171954,0.4405784607,7.670791149,-1.915155411,7.918520473,
10.16422552,-1.338186026,5.709873199,-2.11645174,6.234802464,
10.16673152,-2.659921408,4.096213341,-2.480160713,5.477713281,
10.1692375,-3.684647799,2.892025232,-2.753241539,5.433302708,
10.17174349,-4.42672205,2.082952023,-2.877668381,5.675872844,
10.17424948,-4.829015255,1.568196177,-2.954238653,5.874193868,
10.17675547,-4.807479858,1.24965167,-3.035594702,5.821368145,
10.17926146,-4.266402721,1.134796143,-3.112463951,5.401609604,
10.1817675,-3.287140131,1.259222865,-3.119642496,4.703520146,
10.18427349,-2.068595171,1.647159338,-3.021237612,4.014984007,
10.18677948,-0.7109674215,2.233700037,-2.894418001,3.724586701,
10.18928547,0.6128616929,2.88006115,-2.813062191,4.072305314,
10.19179146,1.807478428,3.478565931,-2.801098108,4.81804419,
10.19429745,2.803490877,3.935894251,-2.810669184,5.590231293,
10.19680344,3.574278831,4.29750967,-2.872882605,6.284704686,
10.19930943,4.103391647,4.529613495,-2.973381281,6.796779948,
10.20181542,4.386044025,4.630111694,-3.117249727,7.098771891,
10.20432141,4.510470867,4.594219685,-3.258426189,7.215853601,
10.20682745,4.558327198,4.52482748,-3.370888948,7.253640663,
10.20933344,4.551148891,4.433900356,-3.457030535,7.233497682,
10.21183943,4.496113777,4.290330887,-3.483351469,7.124304575,
10.21434542,4.448257446,4.139284134,-3.466601849,6.995569729,
10.21685141,4.409972191,3.964607954,-3.44985199,6.860572112,
10.2193574,4.371686935,3.811467409,-3.39960289,6.722814164,
10.22186339,4.350151539,3.694219112,-3.337389469,6.611296524,
10.22436938,4.338187218,3.583850145,-3.265604734,6.505999115,
10.22687537,4.350151539,3.492922783,-3.196212769,6.429627053,
10.22938136,4.376472473,3.466601849,-3.083451033,6.377970677,
10.23188735,4.388436794,3.435495138,-2.951845884,6.306694734,
10.23439339,4.386044025,3.394817114,-2.769991398,6.199598195,
10.23689938,4.345366001,3.397209883,-2.602493763,6.098869933,
10.23940537,4.290330887,3.366103172,-2.415554523,5.964268047,
10.24191136,4.223331928,3.344567776,-2.209771633,5.822865004,
10.24441735,4.17517662,3.323032379,-2.011167526,5.702581768,
10.24692334,4.194318771,3.378067255,-1.790728688,5.675416951,
10.24942933,4.244867325,3.459423304,-1.659123421,5.721817781,
10.25193532,4.309473515,3.483351469,-1.611266971,5.770743512,
10.25444131,4.342973232,3.485744476,-1.637588024,5.804612441,
10.2569473,4.400400639,3.543172121,-1.754836321,5.915830032,
10.25945334,4.448257446,3.61017108,-1.831406593,6.014514082,
10.26195933,4.445864677,3.732504129,-1.903191328,6.108963663,
10.26446532,4.457828522,3.892823458,-1.970489502,6.237719013,
10.26697131,4.476971149,4.04835701,-2.042274237,6.372075738,
10.2694773,4.520041943,4.199104786,-2.130808592,6.527143741,
10.27198329,4.60379076,4.33340168,-2.274377823,6.719081333,
10.27448928,4.644468784,4.340580463,-2.204986095,6.72857286,
10.27699526,4.740181446,4.319045067,-2.068595171,6.738141911,
10.27950125,4.857728958,4.247260094,-2.02073884,6.76166654,
10.28200724,4.991727352,4.242474556,-2.068595171,6.869863048,
10.28451323,5.087440014,4.299902439,-2.106880426,6.986426269,
10.28701928,5.1735816,4.472185612,-2.224128723,7.191184833,
10.28952526,5.175974369,4.661218643,-2.324627161,7.343130214,
10.29203125,5.104189873,4.709074974,-2.183450699,7.279807575,
10.29453724,5.022833824,4.65403986,-1.970489502,7.125431602,
10.29704323,4.915156841,4.584648132,-1.790728688,6.955894946,
10.29954922,4.862514496,4.529613495,-1.697408557,6.858763842,
10.30205521,4.860121727,4.563112736,-1.695015788,6.878652452,
10.3045612,4.850550652,4.570291042,-1.72372961,6.883795872,
10.30706719,4.90319252,4.541577339,-1.721336842,6.901465217,
10.30957323,5.015655518,4.536791801,-1.781157374,6.993697285,
10.31207922,5.178367138,4.632504463,-1.903191328,7.204007291,
10.31458521,5.312365532,4.824229717,-2.037488461,7.459609851,
10.3170912,5.417948723,5.008476734,-2.10209465,7.67188435,
10.31959719,5.511268616,5.175974369,-2.118844509,7.852024865,
10.32210318,5.587839127,5.324329376,-2.202593327,8.026446709,
10.32460917,5.673980713,5.494519234,-2.274377823,8.219281795,
10.32711516,5.731408596,5.712265968,-2.365305185,8.430521669,
10.32962115,5.75772953,5.951847076,-2.343769789,8.606345902,
10.33212714,5.800800323,6.234200478,-2.353341103,8.834746987,
10.33463318,5.884549141,6.485745907,-2.35812664,9.069375933,
10.33713917,5.997310638,6.681957245,-2.465803623,9.31109419,
10.33964516,6.164808273,6.722635269,-2.714956284,9.516810055,
10.34215115,6.351448536,6.710670948,-3.040380239,9.727174054,
10.34465714,6.51445961,6.689135551,-3.212962627,9.874504913,
10.34716313,6.636493683,6.736992359,-3.203391314,9.984579628,
10.34966912,6.753741741,6.928418159,-3.021237612,10.1362657,
10.35217511,6.820741177,7.211070061,-2.789133787,10.31025261,
10.3546811,6.902096748,7.536494255,-2.533101797,10.52873639,
10.35718709,6.969096184,7.878966808,-2.35812664,10.77994345,
10.35969308,7.031608582,8.214261055,-2.281556368,11.05093224,
10.36219912,7.101000309,8.542078018,-2.300698996,11.34391987,
10.36470511,7.187141895,8.841479301,-2.374876499,11.63902072,
10.3672111,7.24217701,9.09990406,-2.492124796,11.89403496,
10.36971709,7.321139812,9.375378609,-2.607279301,12.17763185,
10.37222308,7.414460182,9.674481392,-2.781955481,12.50236323,
10.37472907,7.519744396,10.00977516,-2.932703257,12.85857313,
10.37723506,7.661220074,10.35673428,-3.037987471,13.23576993,
10.37974105,7.800003529,10.70877838,-3.126821041,13.61231058,
10.38224704,7.986643791,11.0440731,-3.215355396,14.00344744,
10.38475302,8.171190262,11.38863945,-3.35413909,14.41248444,
10.38725907,8.33150959,11.72632694,-3.54556489,14.81525653,
10.38976506,8.448758125,12.04696465,-3.727718592,15.17915534,
10.39227105,8.510971069,12.32722378,-3.911965847,15.48226571,
10.39477704,8.5085783,12.52104282,-4.089034557,15.68096367,
10.39728302,8.408080101,12.69841099,-4.232903481,15.807053,
10.39978902,8.197511673,12.91376495,-4.326223373,15.89593444,
10.402295,7.948358536,13.11236858,-4.429114819,15.9601902,
10.40480099,7.65404129,13.33041477,-4.567898273,16.03589725,
10.40730698,7.333104134,13.55533981,-4.723432064,16.11931959,
10.40981297,7.002595425,13.77099323,-4.884049892,16.20279422,
10.41231902,6.674778938,13.98156166,-5.051547527,16.29585447,
10.414825,6.351448536,14.12513161,-5.240580559,16.35004361,
10.41733099,6.049952984,14.2184515,-5.367699623,16.35782667,
10.41983698,5.788836002,14.28066444,-5.377270699,16.32063232,
10.42234297,5.520840168,14.29502201,-5.309972763,16.2179882,
10.42484896,5.305186749,14.32642746,-5.204688549,16.1394025,
10.42735495,5.183153152,14.35274887,-5.161617756,16.10927604,
10.42986094,5.1735816,14.37428379,-5.180759907,16.13152982,
10.43236693,5.269294739,14.44367599,-5.214259624,16.23495447,
10.43487297,5.444269657,14.48196125,-5.211866856,16.32577195,
10.43737896,5.628517151,14.40299797,-5.070690155,16.27385801,
10.43988495,5.798407555,14.16341591,-4.709074974,16.01247225,
10.44239094,5.954239845,13.74437332,-4.16081953,15.54584154,
10.44489693,6.104988098,13.14826107,-3.543172121,14.92319395,
10.44740292,6.325127602,12.4803648,-2.956631422,14.30064383,
10.44990891,6.600601196,11.74786186,-2.46819663,13.69934995,
10.4524149,6.885347366,10.9746809,-2.10209465,13.12518309,
10.45492089,7.141678333,10.19402313,-1.85294199,12.58392113,
10.45742693,7.345067978,9.418449402,-1.649552107,12.0572897,
10.45993292,7.498209,8.671290398,-1.53230381,11.56556831,
10.46243891,7.627720356,7.926823139,-1.474876046,11.09918476,
10.4649449,7.788039684,7.285247803,-1.326221943,10.7465,
10.46745089,8.051250458,6.885347366,-1.110867858,10.65197961,
10.46995688,8.429615021,6.669992924,-0.8907282352,10.78613053,
10.47246287,8.846264839,6.576673031,-0.7588238716,11.04920103,
10.47496886,9.296415329,6.614958286,-0.8258228898,11.43953647,
10.47747485,9.734301567,6.708278179,-1.098903775,11.87287718,
10.47998084,10.05284595,6.832705021,-1.623231053,12.26297063,
10.48248683,10.21316528,6.983452797,-2.286342144,12.5819203,
10.48499287,10.15334511,7.108178616,-3.033201694,12.75997385,
10.48749886,9.844670296,7.14885664,-3.622135162,12.69423285,
10.49000485,9.31555748,7.096214771,-3.921537161,12.34966918,
10.49251084,8.68803978,6.933203697,-3.840181351,11.76003153,
10.49501683,8.08953476,6.768098831,-3.4809587,11.10697114,
10.49752282,7.632505894,6.586244106,-2.997309446,10.51749122,
10.50002881,7.440781116,6.416054726,-2.547458887,10.14990289,
10.5025348,7.522137165,6.274878502,-2.233700037,10.04719183,
10.50504078,7.864609718,6.234200478,-2.075773716,10.24822805,
10.50754683,8.341080666,6.236593246,-2.030309916,10.61088499,
10.51005282,8.831908226,6.236593246,-2.008774519,10.99694836,
10.51255881,9.233902931,6.243771553,-2.044667006,11.33270973,
10.5150648,9.518947601,6.260521412,-2.142772675,11.59292744,
10.51757078,9.729516029,6.258128643,-2.283949137,11.79169538,
10.52007678,9.894919395,6.25094986,-2.382055044,11.94395204,
10.52258277,10.12941647,6.643671989,-2.65513587,12.40133872,
10.52508875,10.68724346,9.619445801,-3.852145433,14.88589718,
10.52759474,10.15573788,16.75633812,-3.047558784,19.82930895,
10.53010078,7.541279793,20.24447632,-3.804288864,21.93586871,
10.53260678,5.554339409,19.32742691,-6.847062111,21.24340784,
10.53511277,5.346164227,20.38804626,-6.236593246,21.98065053,
10.53761875,5.750551224,22.6145668,-6.030810356,24.10099883,
10.54012474,5.166403294,24.56352043,-6.866204739,26.02312484,
10.54263073,3.004487991,26.17718124,-5.647659779,26.94750131,
10.54513672,-0.2727817893,27.6780777,-2.894418001,27.83034406,
10.54764271,-4.479363918,29.95963478,0.2775674164,30.29391789,
10.5501487,-10.0337038,31.75305557,4.321437836,33.57985371,
10.55265469,-16.54068565,32.33720398,8.568398476,37.31898305,
10.55516068,-23.07428741,30.70918655,14.20888042,40.95569755,
10.55766672,-28.34119034,27.23540688,20.01237297,44.1076584,
10.56017271,-31.31247711,21.30748749,24.12055016,44.90301978,
10.5626787,-30.991539,13.43091393,24.7477684,41.87262805,
10.56518469,-26.768507,5.539982796,19.89961052,33.81181562,
10.56769068,-19.89482498,0.04546362907,9.988240242,22.26142563,
10.57019667,-13.16501141,-2.805883646,-0.1938186288,13.46209768,
10.57270266,-7.402495861,-2.992523909,-7.759325504,11.13370004,
10.57520865,-2.947060108,-0.950548768,-12.35115242,12.73340773,
10.57771469,0.1555334777,2.760420084,-14.6638155,14.92218465,
10.58022068,2.652743101,7.09860754,-15.65504169,17.39274577,
10.58272667,4.951049328,10.82602692,-15.01346684,19.16037407,
10.58523266,7.179963589,13.15783215,-12.69123173,19.640463,
10.58773865,9.327521324,14.11077404,-9.597910881,19.44830305,
10.59024464,11.32403278,13.93849087,-6.600601196,19.13330035,
10.59275063,13.00947762,13.0381918,-4.228117466,18.89756414,
10.59525662,14.23520088,11.7023983,-2.51844573,18.59918383,
10.59776261,14.90100384,10.277771,-1.587338686,18.17118973,
10.6002686,15.1594286,8.932407379,-1.278365493,17.64172314,
10.60277464,15.18814278,7.929215908,-1.438983679,17.19368547,
10.60528063,15.04935932,7.306783199,-1.850549221,16.83142386,
10.60778662,14.8265276,7.067500591,-2.415554523,16.60151767,
10.61029261,14.52742481,7.244569778,-2.870489836,16.48543523,
10.6127986,14.0485611,7.711469173,-2.803490877,16.26924666,
10.61530459,13.36630726,8.14726162,-2.963809967,15.93173597,
10.61781058,12.54497051,8.192725182,-3.821038723,15.46277362,
10.62031657,11.68564892,7.756932735,-5.855835438,15.19918435,
10.62282256,10.68485069,6.897311211,-7.795217991,14.91658003,
10.6253286,9.74865818,5.865406513,-8.985049248,14.49725629,
10.62783459,9.142974854,5.130510807,-9.906884193,14.42437121,
10.63034058,8.810373306,4.941477776,-11.06321526,14.98117526,
10.63284657,8.451150894,5.365306377,-12.19083309,15.77418383,
10.63535256,7.960322857,6.372983932,-12.83480167,16.39249213,
10.63785855,7.325925827,7.735397339,-12.9329071,16.756063,
10.64036454,6.610172749,9.013762474,-12.38704491,16.68475889,
10.64287053,5.865406513,9.758230209,-11.50110245,16.18336825,
10.64537652,5.427519798,9.945169449,-10.35673428,15.35012415,
10.6478825,5.36052084,9.684052467,-8.927620888,14.22035409,
10.65038855,5.647659779,9.270093918,-7.306783199,13.08509774,
10.65289454,6.217450619,9.133403778,-5.671587944,12.41944711,
10.65540053,6.985845566,9.305986404,-4.177569389,12.36347472,
10.65790652,7.845467091,9.717552185,-2.894418001,12.82028977,
10.6604125,8.604290962,10.11266708,-1.829013824,13.40317687,
10.66291849,9.102297783,10.4096756,-1.055832982,13.86823544,
10.66542448,9.284450531,10.55563831,-0.5458626747,14.06842166,
10.66793047,9.035298347,10.58913708,-0.2368894368,13.92201698,
10.67043646,8.321938515,10.4790678,-0.09092725813,13.38184555,
10.6729425,7.194320202,10.32323551,-0.08135596663,12.583086,
10.67544849,5.80797863,10.07198906,-0.1555334777,11.6276296,
10.67795448,4.388436794,9.803693771,-0.399900496,10.74852127,
10.68046047,3.136392355,9.566803932,-0.8401798606,10.10280143,
10.68296646,2.109273195,9.337093353,-1.374078393,9.670493117,
10.68547245,1.340578914,9.121439934,-1.80508554,9.394474551,
10.68797844,0.8282157183,8.867800713,-1.886441588,9.10398224,
10.69048443,0.5602195859,8.635397911,-1.680658817,8.815245721,
10.69299042,0.5171487927,8.618648529,-1.51555407,8.766153631,
10.69549641,0.5602195859,8.736195564,-1.347757339,8.857279987,
10.69800245,0.5889334679,8.898907661,-1.211366415,9.000267151,
10.70050844,0.5841478109,8.934800148,-1.141974568,9.026405058,
10.70301443,0.7109674215,8.90130043,-1.352542996,9.03150024,
10.70552042,0.8476574421,8.891729355,-1.898405671,9.131556174,
10.70802641,1.048654556,8.848658562,-2.688635349,9.30737314,
10.7105324,1.357328653,8.829515457,-3.648755312,9.649668368,
10.71303839,1.922333837,8.846264839,-4.632504463,10.16916253,
10.71554438,2.68624258,8.934800148,-5.403591633,10.78171394,
10.71805037,3.461816072,9.018548965,-5.800800323,11.26799363,
10.72055641,4.342973232,9.332307816,-6.014060497,11.92150617,
10.7230624,5.226223946,9.557232857,-5.77208662,12.32765592,
10.72556839,5.853442192,9.562018394,-5.207081318,12.36158069,
10.72807438,6.305984974,9.696016312,-4.582255363,12.44086987,
10.73058037,6.686742783,9.997811317,-4.01964283,12.68173051,
10.73308636,6.916453838,10.28973579,-3.433102369,12.86476538,
10.73559235,7.060322285,10.50538826,-2.894418001,12.98418225,
10.73809834,7.022037029,10.72313595,-2.796312332,13.11922297,
10.74060433,6.801598549,10.86909771,-3.009273529,13.17022228,
10.74311037,6.488138676,10.97946644,-3.555136204,13.23947205,
10.74561636,6.097809315,11.00100231,-4.156033993,13.24680901,
10.74812235,5.58066082,10.84756279,-4.565505505,13.02525371,
10.75062834,4.927121162,10.53888798,-4.608576298,12.51333921,
10.75313433,4.179962158,10.14138031,-4.484149456,11.85020146,
10.75564032,3.538386583,9.842277527,-4.26879549,11.29660221,
10.75814631,3.021237612,9.530911446,-4.065106392,10.79311075,
10.76065235,2.638386011,9.181260109,-3.69900465,10.2439862,
10.76315834,2.449054003,8.903693199,-3.478565931,9.867828486,
10.76566433,2.472982168,8.690432549,-3.504886866,9.691413242,
10.76817032,2.68624258,8.585148811,-3.801896095,9.766017266,
10.77067631,2.997309446,8.580363274,-4.201497555,10.0129456,
10.7731823,3.327818155,8.719446182,-4.656432629,10.43002782,
10.77568829,3.715754509,9.032905579,-5.38923502,11.15545019,
10.77819428,3.825824261,9.121439934,-5.618945599,11.37585809,
10.78070026,3.708575964,9.068798065,-5.254937649,11.11804856,
10.78320625,3.492922783,8.958727837,-4.812265396,10.75254446,
10.78571224,3.311068296,8.882157326,-4.316651821,10.4158233,
10.78821829,3.145963669,8.874979019,-3.756432533,10.13770809,
10.79072428,2.88006115,8.836693764,-2.949453115,9.750958034,
10.79323026,2.568994284,8.781659126,-2.295913219,9.43337088,
10.79573625,2.305484533,8.714659691,-1.984846354,9.230393681,
10.79824224,2.114058733,8.68803978,-1.999203324,9.162319219,
10.80074823,2.008774519,8.793622971,-2.307877541,9.310707747,
10.80325422,1.951047778,8.920442581,-2.820240498,9.556915807,
10.80576021,1.879263043,9.040083885,-3.272783279,9.796216445,
10.80826625,1.773978829,9.248259544,-3.761218071,10.14022026,
10.81077224,1.690230131,9.466305733,-4.208974838,10.49682292,
10.81327823,1.556231976,9.547661781,-4.340580463,10.60284595,
10.81578422,1.347757339,9.420842171,-4.01964283,10.33083954,
10.81829021,1.144367456,9.248259544,-3.557528973,9.974762848,
10.8207962,0.950548768,9.061619759,-3.177070379,9.649366394,
10.82330219,0.8644071817,8.87258625,-2.67188549,9.306393427,
10.82580818,0.9649057388,8.791230202,-2.324627161,9.144433442,
10.82831417,1.256830096,8.90130043,-2.286342144,9.275781996,
10.83082021,1.663909078,9.109476089,-2.482553482,9.587190404,
10.8333262,2.051845312,9.202795982,-2.600100994,9.780697739,
10.83583219,2.441875458,9.282057762,-2.892025232,10.02412899,
10.83833818,2.743670225,9.361021042,-3.239283562,10.27858936,
10.84084417,2.947060108,9.384949684,-3.327818155,10.38445076,
10.84335016,3.045166016,9.356235504,-3.299104214,10.37768122,
10.84585615,3.035594702,9.262915611,-3.033201694,10.2086607,
10.84836214,2.923131943,9.1860466,-2.798705101,10.03797304,
10.85086813,2.71974206,9.20758152,-2.669492722,9.965076302,
10.85337412,2.425125837,9.286844254,-2.75084877,9.984682292,
10.85588016,2.097309113,9.310771942,-2.894418001,9.973306134,
10.85838615,1.728515267,9.305986404,-3.090928555,9.957057162,
10.86089214,1.393221021,9.135796547,-3.107678413,9.749949153,
10.86339813,1.194616675,9.00179863,-3.119642496,9.601648654,
10.86590412,1.118046403,8.994620323,-3.258426189,9.6317477,
10.86841011,1.091725349,9.092725754,-3.217748165,9.706875353,
10.8709161,1.108475089,9.229117393,-3.023630619,9.774848695,
10.87342214,1.125224829,9.334700584,-2.805883646,9.812020635,
10.87592813,1.084546804,9.404091835,-2.542673111,9.801957537,
10.87843412,0.9577272534,9.47109127,-2.370090723,9.810002109,
10.88094011,0.7348956466,9.497411728,-2.14995122,9.765407897,
10.8834461,0.4884349108,9.533304214,-2.051845312,9.763837724,
10.88595209,0.2560320199,9.581160545,-2.204986095,9.834945525,
10.88845808,0.05264209956,9.564411163,-2.401197433,9.86136305,
10.89096407,-0.1459621787,9.52134037,-2.64077878,9.881849016,
10.89347006,-0.2898306549,9.468698502,-2.729313374,9.858468675,
10.8959761,-0.3400799036,9.416056633,-2.638386011,9.784623529,
10.89848209,-0.3017947674,9.308379173,-2.410768747,9.620229148,
10.90098808,-0.1627119333,9.209974289,-2.13559413,9.455731799,
10.90349407,0.08853443712,9.198010445,-1.996810555,9.412676924,
10.90600006,0.4214358926,9.291629791,-1.934298038,9.500184277,
10.90850605,0.7779664397,9.511769295,-2.176272154,9.788521205,
10.91101204,1.029511929,9.602696419,-2.18105793,9.900943744,
10.91351802,1.197009563,9.578767776,-2.200200319,9.900833574,
10.91602402,1.28315115,9.41366291,-2.257628202,9.765265555,
10.91853006,1.386042476,9.250652313,-2.257628202,9.62250316,
10.92103605,1.472483277,9.219545364,-2.475374937,9.658970173,
10.92354204,1.448554993,9.313164711,-2.494517565,9.749664937,
10.92604802,1.333400369,9.473484039,-2.429911375,9.870629447,
10.92855402,1.161117196,9.595518112,-2.34137702,9.945059443,
10.93106,0.8979067206,9.734301567,-2.585743904,10.11182155,
10.93356599,0.5434698462,9.717552185,-2.894418001,10.15400588,
10.93607198,0.1746760458,9.463912964,-2.695813894,9.841929326,
10.93857802,-0.1603191197,9.478269577,-2.896811008,9.912356451,
10.94108402,-0.4477569461,9.614660263,-3.208176851,10.14566789,
10.94359,-0.6798607111,9.753444672,-3.107678413,10.25912076,
10.94609599,-0.9050851464,9.911669731,-3.021237612,10.40135821,
10.94860198,-1.1395818,9.827920914,-2.647957325,10.24198976,
10.95110797,-1.304686546,9.820742607,-2.667099953,10.25975704,
10.95361396,-1.407876968,9.866206169,-3.064308405,10.42660672,
10.95611995,-1.46769762,9.961918831,-3.148356438,10.55017115,
10.95862594,-1.446162224,10.02173901,-3.066701412,10.57975876,
10.96113193,-1.390828133,10.16530895,-3.078665495,10.71196015,
10.96363797,-1.345364571,10.42403316,-3.457030535,11.06442648,
10.96614396,-1.323829174,10.67288589,-3.749253988,11.38946542,
10.96864995,-1.333400369,10.92652512,-3.888037682,11.6740629,
10.97115594,-1.37886405,11.19960594,-3.892823458,11.9367715,
10.97366193,-1.410269856,11.48674488,-3.710968733,12.15341343,
10.97616792,-1.429412484,11.76700401,-3.442673683,12.34332231,
10.97867391,-1.36211431,12.07837009,-3.220141172,12.57424704,
10.98117995,-1.204187989,12.45404339,-3.102892876,12.89112911,
10.98368594,-0.9649057388,12.82283783,-2.923131943,13.18714956,
10.98619193,-0.7253243923,13.14826107,-2.525923491,13.40832406,
10.98869792,-0.5027918816,13.45723438,-2.114058733,13.63155168,
10.99120391,-0.2775674164,13.7853508,-1.919941068,13.92117502,
10.9937099,-0.1292124242,13.99113274,-1.45334065,14.06700715,
10.99621589,-0.06460621208,14.13709545,-0.9816554785,14.17128397,
10.99872188,-0.1244267747,14.14666653,-0.50518471,14.15623069,
11.00122787,-0.2751746178,14.0557394,0.1292124242,14.05902653,
11.00373391,-0.5195416212,13.89542007,0.8644071817,13.93197123,
11.0062399,-0.8452646136,13.63191032,1.48444736,13.73852377,
11.00874589,-1.213759303,13.3902359,1.6926229,13.5512583,
11.01125188,-1.651944876,13.28734398,1.482054472,13.47141111,
11.01375787,-2.13559413,13.27538013,1.208973646,13.5002999,
11.01626386,-2.669492722,13.28016567,0.8596215248,13.57305938,
11.01876985,-3.119642496,13.41655636,0.3400799036,13.77867222,
11.02127584,-3.473780155,13.59362507,-0.0765703246,14.03066834,
11.02378188,-3.749253988,13.91934872,-0.2994019389,14.41855803,
11.02628787,-3.945465326,14.27827168,-0.4501497746,14.82020153,
11.02879386,-4.055535316,14.61835194,-0.6104688644,15.18276168,
11.03129985,-4.117748737,14.92253971,-0.8066803217,15.50125089,
11.03380584,-4.120141506,15.2096777,-1.125224829,15.79797432,
11.03631183,-4.072285175,15.46840191,-1.508375525,16.06642962,
11.03881782,-4.062713623,15.68854141,-1.704586983,16.29544692,
11.04132381,-3.995714664,15.96132374,-1.790728688,16.55102113,
11.0438298,-3.96939373,16.20090485,-1.706979871,16.76720563,
11.04633578,-3.947858334,16.33011818,-1.618445396,16.87832073,
11.04884183,-3.71336174,16.68216133,-1.783550143,17.1832655,
11.05134782,-3.4809587,17.18255997,-2.092523336,17.6560498,
11.05385381,-3.394817114,17.9198494,-2.561815739,18.41761889,
11.0563598,-3.512065411,18.90389633,-3.205784082,19.4927923,
11.05886578,-3.911965847,19.82304001,-3.76361084,20.55288687,
11.06137178,-4.546362877,20.63480568,-4.079463482,21.51991271,
11.06387776,-5.321936607,21.26441574,-3.911965847,22.2666087,
11.06638381,-6.270092487,21.47019958,-3.258426189,22.60311641,
11.0688898,-7.110571384,21.31945229,-2.427518606,22.60469238,
11.07139578,-7.608577728,20.96262169,-1.683051586,22.36413704,
11.07390178,-7.709076405,20.48375893,-1.163509965,21.91729897,
11.07640776,-7.428816795,19.940588,-0.7348956466,21.29212155,
11.07891375,-6.794419765,19.40908241,-0.294616282,20.56607446,
11.08141974,-5.899205208,18.96132469,0.04546362907,19.85785797,
11.08392573,-4.941477776,18.72652817,0.1507478207,19.36811258,
11.08643178,-4.065106392,18.83211327,-0.07896314561,19.26602749,
11.08893776,-3.454637766,19.34417725,-0.7037889361,19.66283383,
11.09144375,-3.366103172,20.15115547,-1.72372961,20.50295006,
11.09394974,-3.849752426,21.10649109,-2.844168901,21.64240875,
11.09645573,-4.771587372,21.85574341,-4.007678986,22.72670361,
11.09896172,-5.776872158,22.2628212,-5.226223946,23.58641296,
11.10146771,-6.612565517,22.4135704,-6.457031727,24.24432758,
11.1039737,-7.22781992,22.32742882,-7.615756035,24.67296493,
11.10647974,-7.498209,22.02802658,-8.755337715,24.86187909,
11.10898573,-7.493422985,21.48694992,-9.583553314,24.69179821,
11.11149172,-7.151249409,20.74966049,-9.815657616,24.04237744,
11.11399771,-6.389733791,20.00519371,-9.511769295,23.0545056,
11.1165037,-5.48734045,19.1503582,-9.073583603,21.89011292,
11.11900969,-4.658825874,17.79781532,-8.788837433,20.38898115,
11.12151568,-3.694219112,15.93260956,-8.848658562,18.59553873,
11.12402167,-2.410768747,13.94088364,-9.104690552,16.82425132,
11.12652766,-0.7229315639,12.40857983,-9.245866776,15.49133744,
11.1290337,1.220937729,11.72154045,-9.131011009,14.90840573,
11.13153969,3.239283562,11.81725407,-8.707481384,15.03198868,
11.13404568,5.097011566,12.36311626,-8.190332413,15.68144495,
11.13655167,6.842276573,12.99751377,-7.778468132,16.62097107,
11.13905766,8.566005707,13.63191032,-7.666005611,17.83179954,
11.14156365,10.24427223,14.22562981,-7.883752346,19.2215298,
11.14406964,11.67846966,14.89861107,-8.202297211,20.63087358,
11.14657563,12.6000061,15.7866478,-8.338687897,21.85205067,
11.14908167,12.76780224,17.20648766,-8.22383213,22.95019404,
11.15158766,12.01107216,19.71536255,-7.756932735,24.35428875,
11.15409365,10.05045319,21.99213409,-7.323532581,25.26459382,
11.15659964,6.9619174,21.93949127,-6.229414463,23.84565318,
11.15910563,3.797110319,18.55185318,-2.994916677,19.17182383,
11.16161162,1.941476464,12.65773296,0.4932205677,12.81525658,
11.16411761,1.663909078,6.303592205,0.7851449251,6.56660648,
11.1666236,2.616850615,0.9912267923,-1.381256819,3.120626234,
11.16912959,4.450650215,-2.743670225,-4.167997837,6.686420538,
11.17163563,6.813562393,-4.582255363,-6.408876419,10.41611221,
11.17414162,9.392127991,-4.273581028,-7.730611801,12.89332858,
11.17664761,11.73350525,-2.054238319,-8.319544792,14.5296203,
11.1791536,13.46441269,1.304686546,-8.422436714,15.93518297,
11.18165959,14.34317684,4.86730051,-8.125427246,17.18836537,
11.18416558,14.36471272,7.936394691,-7.457530975,18.02626141,
11.18667157,13.68694592,10.13659477,-6.404090881,18.19602765,
11.18917761,12.45404339,11.36949635,-5.120939732,17.62363945,
11.1916836,10.82602692,11.6019001,-3.77796793,16.31195839,
11.19418959,8.968298912,10.97946644,-2.679064035,14.42762811,
11.19669558,7.093822002,9.801301003,-1.934298038,12.25272708,
11.19920157,5.384449005,8.350651741,-1.541875124,10.05500147,
11.20170756,3.92392993,6.851847649,-1.486840129,8.034658416,
11.20421355,2.691028118,5.470590591,-1.608874083,6.305352454,
11.20671954,1.702194214,4.191926003,-1.857727647,4.890895701,
11.20922558,0.8979067206,3.117249727,-2.128415823,3.879901578,
11.21173157,0.2922234535,2.202593327,-2.40598321,3.274991162,
11.21423756,-0.1244267747,1.489233017,-2.635993242,3.030141478,
11.21674355,-0.3305086195,0.9601200819,-2.781955481,2.961476459,
11.21924954,-0.2874378264,0.6056832075,-2.834597588,2.912802111,
11.22175552,-0.01674975827,0.4501497746,-2.789133787,2.825275678,
11.22426152,0.4860421121,0.4932205677,-2.705385208,2.792599611,
11.2267675,1.18743825,0.7325028181,-2.664707184,3.00786209,
11.22927349,2.008774519,1.065404296,-2.667099953,3.504808631,
11.23177954,2.825026274,1.477268934,-2.702992201,4.179624838,
11.23428552,3.5766716,1.8840487,-2.786741018,4.910004557,
11.23679152,4.218546391,2.228914261,-2.944667339,5.606715453,
11.2392975,4.694717884,2.458625317,-3.117249727,6.148370542,
11.24180349,5.037190914,2.573779821,-3.330210924,6.564140437,
11.24430948,5.211866856,2.566601276,-3.550350666,6.808523194,
11.24681547,5.250152111,2.50169611,-3.758825302,6.924691204,
11.24932152,5.214259624,2.382055044,-3.911965847,6.940184901,
11.2518275,5.099404335,2.214557409,-4.005286217,6.852043985,
11.25433349,4.934299469,2.07098794,-4.074677944,6.726016848,
11.25683948,4.759324074,1.941476464,-4.072285175,6.557743747,
11.25934547,4.594219685,1.85294199,-4.08424902,6.420384613,
11.26185146,4.424329281,1.783550143,-4.069892406,6.270547416,
11.26435745,4.240081787,1.74047935,-4.022035599,6.097895726,
11.26686344,4.03399992,1.738086581,-3.950251102,5.907502356,
11.26936948,3.84257412,1.745265007,-3.844966888,5.70921152,
11.27187547,3.600599766,1.74047935,-3.69900465,5.447588682,
11.27438146,3.370888948,1.716551185,-3.483351469,5.142293042,
11.27688745,3.153141975,1.735693693,-3.215355396,4.826328546,
11.27939344,3.004487991,1.793121457,-2.954238653,4.579274907,
11.28189943,2.908775091,1.888834357,-2.717349291,4.405979452,
11.28440542,2.858525753,2.001596212,-2.513660192,4.300702785,
11.28691141,2.820240498,2.056631088,-2.386840582,4.228533535,
11.28941745,2.813062191,2.147558212,-2.283949137,4.212095538,
11.29192344,2.825026274,2.238485575,-2.248056889,4.247981979,
11.29442943,2.875275612,2.39162612,-2.260020971,4.369757445,
11.29693542,2.94227457,2.520838737,-2.312663078,4.512207675,
11.29944141,2.999702215,2.612065077,-2.324627161,4.607058583,
11.3019474,3.141177893,2.695813894,-2.312663078,4.741605384,
11.30445339,3.227319479,2.786741018,-2.279163599,4.834883994,
11.30695938,3.32063961,2.892025232,-2.288734913,4.962737638,
11.30946542,3.401995659,3.023630619,-2.315055847,5.106407755,
11.31197141,3.440280676,3.069094181,-2.228914261,5.120832843,
11.3144774,3.457030535,3.069094181,-2.082952023,5.070413034,
11.31698339,3.526422262,3.131606579,-2.013560295,5.128063845,
11.31948938,3.595814228,3.167499065,-1.980060697,5.1849369,
11.32199537,3.672683716,3.222533941,-1.85294199,5.22558367,
11.32450136,3.758825302,3.287140131,-1.762014747,5.295163252,
11.3270074,3.840181351,3.35413909,-1.776371717,5.39932758,
11.32951339,3.888037682,3.39960289,-1.778764486,5.462429855,
11.33201938,3.90478754,3.409173965,-1.769193292,5.477214417,
11.33452537,3.933501244,3.433102369,-1.773978829,5.514129559,
11.33703136,4.012464523,3.4809587,-1.778764486,5.601870056,
11.33953735,4.122534275,3.574278831,-1.766800404,5.735184538,
11.34204334,4.240081787,3.746861219,-1.745265007,5.921419805,
11.34454933,4.342973232,3.90478754,-1.790728688,6.108640722,
11.34705532,4.41236496,4.072285175,-1.821835399,6.274675713,
11.34956136,4.445864677,4.223331928,-1.829013824,6.399026244,
11.35206735,4.448257446,4.340580463,-1.850549221,6.484764104,
11.35457334,4.462614059,4.457828522,-1.843370795,6.571542837,
11.35707933,4.429114819,4.630111694,-1.821835399,6.661386988,
11.35958532,4.441078663,4.874478817,-1.781157374,6.830537682,
11.36209131,4.431507587,5.15922451,-1.764407635,7.026307092,
11.3645973,4.414757729,5.410770416,-1.848156333,7.223725087,
11.36710334,4.407579422,5.559125423,-2.011167526,7.373969532,
11.36960933,4.438685894,5.642873764,-2.24566412,7.522430732,
11.37211532,4.532006264,5.736194134,-2.484946251,7.721266851,
11.37462131,4.658825874,5.870192051,-2.619243383,7.938781339,
11.3771273,4.840979099,6.109773636,-2.633600473,8.228017014,
11.37963328,4.977370262,6.418447495,-2.557030201,8.515226739,
11.38213928,5.142475128,6.811169624,-2.429911375,8.873643636,
11.38464527,5.298008442,7.22781992,-2.360519648,9.267271834,
11.38715131,5.441876888,7.656434059,-2.367697954,9.687156454,
11.3896573,5.554339409,8.08953476,-2.441875458,10.11207272,
11.39216328,5.666802406,8.527720451,-2.535494804,10.54814673,
11.39466928,5.831906796,9.018548965,-2.597707987,11.04959045,
11.39717527,5.985346794,9.530911446,-2.662314177,11.56505798,
11.39968125,6.171987057,10.0648098,-2.803490877,12.13480044,
11.40218724,6.430411816,10.65374374,-3.117249727,12.82847215,
11.40469328,6.693921566,11.19003487,-3.437887907,13.48497458,
11.40719928,6.97627449,11.62104225,-3.730111361,14.05812077,
11.40970527,7.29003334,11.92493057,-4.041178226,14.54921567,
11.41221125,7.639684677,12.19561863,-4.309473515,15.02229868,
11.41471724,8.056035995,12.44925785,-4.469792843,15.48750416,
11.41722323,8.47986412,12.79651642,-4.644468784,16.03839201,
11.41972922,8.90130043,13.15304661,-4.778766155,16.58530646,
11.42223521,9.301200867,13.45005608,-4.86730051,17.06185688,
11.42474125,9.643374443,13.67258835,-4.891228676,17.43153639,
11.42724724,9.870991707,13.94327641,-4.85294342,17.75957471,
11.42975323,9.961918831,14.25195122,-4.795515537,18.03759711,
11.43225922,9.930811882,14.57528114,-4.723432064,18.25844066,
11.43476521,9.825528145,14.92014694,-4.692325115,18.47077971,
11.4372712,9.590732574,15.25035572,-4.721039295,18.62374057,
11.43977719,9.279664993,15.58804321,-4.797908306,18.7648394,
11.44228318,8.985049248,15.91346741,-4.905585289,18.92179489,
11.44478922,8.72423172,16.17936897,-5.065904617,19.06692395,
11.44729521,8.5085783,16.40429497,-5.281258583,19.21948205,
11.4498012,8.369794846,16.51675797,-5.525625706,19.32328385,
11.45230719,8.240582466,16.47607994,-5.733801365,19.2936489,
11.45481318,8.144868851,16.34208107,-5.846263885,19.17240996,
11.45731917,8.03928566,16.08844185,-5.896812439,18.92724153,
11.45982516,7.91007328,15.76032639,-5.932704449,18.60521779,
11.4623312,7.74736166,15.3915329,-5.94466877,18.22800001,
11.46483719,7.613363266,14.96321774,-5.932704449,17.80612724,
11.46734318,7.428816795,14.57049561,-5.824728489,17.3612823,
11.46984917,7.17757082,14.16102314,-5.518447399,16.80789579,
11.47235516,6.868597507,13.67258835,-4.986941338,16.09306956,
11.47486115,6.473781586,13.07408428,-4.240081787,15.19275556,
11.47736714,6.093023777,12.34397411,-3.370888948,14.17256251,
11.47987313,5.748157978,11.54447174,-2.434697151,13.12417228,
11.48237917,5.51605463,10.64895821,-1.594517231,12.09833273,
11.48488516,5.413163185,9.736694336,-0.9529415965,11.18095032,
11.48739115,5.48734045,8.824729919,-0.5602195859,10.40675787,
11.48989714,5.681159019,7.950751305,-0.3903291821,9.779691763,
11.49240313,5.997310638,7.17757082,-0.3544368446,9.360068549,
11.49490912,6.396912098,6.5790658,-0.399900496,9.185015601,
11.49741516,6.904489517,6.217450619,-0.5362913609,9.306786562,
11.49992115,7.450352192,6.102594852,-0.5721837282,9.647632141,
11.50242714,8.099106789,6.18634367,-0.4860421121,10.20306894,
11.50493313,8.743373871,6.368198395,-0.3496512175,10.82232847,
11.50743912,9.387342453,6.653243542,-0.3400799036,11.51101656,
11.50994511,9.973882675,7.134500027,-0.5745765567,12.27638239,
11.5124511,10.39292622,7.728219032,-1.21854496,13.00857934,
11.51495709,10.49342442,8.197511673,-2.252842426,13.50505285,
11.51746313,10.23230743,8.386544228,-3.459423304,13.67486194,
11.51996912,9.626625061,8.326724052,-4.431507587,13.47755553,
11.52247511,8.807980537,7.998608112,-5.008476734,12.90903142,
11.5249811,8.008178711,7.589435101,-5.152046204,12.17678248,
11.52748709,7.373782158,7.151249409,-4.86730051,11.36677816,
11.52999308,7.086643219,6.768098831,-4.273581028,10.69070478,
11.53249907,7.203891754,6.516852379,-3.500101328,10.32550874,
11.53500506,7.728219032,6.411269188,-2.781955481,10.41964579,
11.5375111,8.467900276,6.44237566,-2.260020971,10.87737257,
11.54001709,9.289237022,6.504888535,-2.011167526,11.51730412,
11.54252308,9.995418549,6.447161674,-1.963011861,12.05519395,
11.54502907,10.5221386,6.231807709,-1.999203324,12.39143421,
11.54753506,10.86909771,6.028417587,-1.999203324,12.58872184,
11.55004105,11.35992527,7.08425045,-2.722134829,13.66179068,
11.55254704,11.50349522,11.68804169,-2.947060108,16.66210923,
11.55505308,9.420842171,16.89272881,-1.3310076,19.38783471,
11.55755907,6.679564476,16.20808411,-3.227319479,17.82509924,
11.56006506,5.829514027,15.22403526,-4.275974274,16.85343999,
11.56257105,6.823133945,16.42343712,-3.524029493,18.1301745,
11.56507704,8.164011955,18.17348862,-5.207081318,20.59224309,
11.56758303,8.226224899,20.20140457,-6.789634228,22.84440097,
11.57008902,6.622136593,22.10698891,-6.933203697,24.0964928,
11.572595,3.911965847,24.22344017,-5.901597977,25.23702417,
11.57510105,0.03589234129,26.69672203,-3.303889751,26.90040786,
11.57760704,-5.125725269,29.11945534,-0.04785645381,29.56717824,
11.58011303,-11.6521492,30.21835899,3.117249727,32.53673381,
11.58261902,-18.91586113,30.23750114,6.50010252,36.25420818,
11.585125,-26.12453842,28.45155907,11.64736366,40.34406773,
11.58763099,-31.72434235,24.52762794,18.86561203,44.31647264,
11.59013698,-33.90510178,18.87279129,23.58665085,45.41000194,
11.59264303,-31.77219772,11.92971611,22.20778656,40.55830936,
11.59514902,-25.48984146,5.365306377,14.93450356,30.02595422,
11.597655,-18.14238167,0.4932205677,5.132903576,18.8609644,
11.60016099,-11.5396862,-2.008774519,-3.433102369,12.20597086,
11.60266698,-6.143272877,-2.087737799,-8.815158844,10.94556879,
11.60517297,-2.066202402,0.02632104978,-11.49392319,11.67819144,
11.60767896,1.070189953,3.49531579,-12.49950695,13.02306466,
11.61018495,3.900001764,7.134500027,-12.50668621,14.91738262,
11.61269099,6.677171707,10.10309505,-11.55643559,16.73942517,
11.61519698,9.377771378,12.07837009,-9.866206169,18.198122,
11.61770297,11.83400345,12.99033546,-7.642077446,19.16230155,
11.62020896,13.89542007,12.99751377,-5.537590027,19.81622988,
11.62271495,15.42503166,12.3176527,-3.837788343,20.10932095,
11.62522094,16.30140305,11.27617645,-2.762812853,20.01302155,
11.62772693,16.5649128,10.19162941,-2.403590441,19.59701235,
11.63023297,16.44975853,9.296415329,-2.408375978,19.04778645,
11.63273896,16.03101349,8.714659691,-2.568994284,18.42656828,
11.63524495,15.5042944,8.484649658,-2.997309446,17.92641315,
11.63775094,14.93211079,8.714659691,-3.133999348,17.57086162,
11.64025693,14.14666653,9.202795982,-2.508874655,17.06206552,
11.64276292,13.01187038,9.564411163,-1.62801671,16.23074768,
11.64526891,12.01107216,9.320343018,-2.298306227,15.37585314,
11.64777495,11.17089272,8.482256889,-3.986143351,14.58173051,
11.65028094,10.2347002,7.366603374,-5.233402252,13.65300087,
11.65278693,9.454340935,6.229414463,-6.00927496,12.81801672,
11.65529292,9.073583603,5.276473045,-6.708278179,12.45680871,
11.65779891,8.95154953,4.768895626,-7.742575645,12.76009726,
11.6603049,8.846264839,4.797908306,-9.037691116,13.52612977,
11.66281089,8.618648529,5.417948723,-10.09591675,14.33746162,
11.66531693,8.183154106,6.44237566,-10.73031425,14.95352331,
11.66782292,7.661220074,7.699504852,-11.0871439,15.52099957,
11.67032891,7.136892796,8.848658562,-11.19242764,15.95319509,
11.6728349,6.789634228,9.734301567,-11.06560802,16.22662753,
11.67534089,6.626922131,10.22034359,-10.48146057,16.06961529,
11.67784688,6.555137634,10.34955597,-9.475876808,15.48791075,
11.68035287,6.631708145,10.35912704,-8.077570915,14.71523761,
11.68285891,6.782455921,10.2347002,-6.571887493,13.92625225,
11.6853649,6.966702938,10.05763149,-5.097011566,13.25407213,
11.68787089,7.115357399,9.878170013,-3.847359657,12.76748723,
11.69037688,7.234998226,9.731908798,-2.887239695,12.46560874,
11.69288287,7.325925827,9.602696419,-2.21216464,12.27903254,
11.69538886,7.294818878,9.41366291,-1.747657895,12.03684925,
11.69789485,7.03400135,9.2362957,-1.482054472,11.70396594,
11.70040089,6.586244106,9.140582085,-1.517946839,11.36806997,
11.70290688,5.982954025,9.102297783,-1.869691849,11.05184652,
11.70541287,5.276473045,9.052047729,-2.305484533,10.72828014,
11.70791886,4.606183529,9.054440498,-2.691028118,10.5091128,
11.71042485,4.002892971,9.119047165,-2.954238653,10.38786308,
11.71293084,3.483351469,9.166903496,-2.908775091,10.22872571,
11.71543683,3.059522867,9.327521324,-2.645564556,10.1667274,
11.71794287,2.710170746,9.552447319,-2.16670084,10.1631131,
11.72044886,2.374876499,9.796515465,-1.690230131,10.22098975,
11.72295485,1.999203324,9.947562218,-1.345364571,10.23527302,
11.72546084,1.642373681,9.971489906,-1.275972724,10.18607425,
11.72796683,1.381256819,9.947562218,-1.491625786,10.15316758,
11.73047282,1.31425786,9.861420631,-2.039881229,10.15558989,
11.73297881,1.352542996,9.664909363,-2.738884687,10.13614004,
11.7354848,1.537089467,9.538089752,-3.526422262,10.28462222,
11.73799084,1.8840487,9.41366291,-4.237689018,10.4940315,
11.74049683,2.350948334,9.305986404,-4.783551693,10.72430454,
11.74300282,2.982952595,9.37298584,-5.216652393,11.13392707,
11.74550881,3.598206997,9.392127991,-5.422734261,11.42651341,
11.7480148,4.165605068,9.334700584,-5.437091351,11.57803364,
11.75052078,4.649254322,9.305986404,-5.355735302,11.70046364,
11.75302683,5.065904617,9.310771942,-5.104189873,11.76463421,
11.75553282,5.391627789,9.392127991,-4.68275404,11.79872467,
11.75803881,5.633302689,9.573982239,-4.103391647,11.84200397,
11.7605448,5.805585861,9.827920914,-3.62452817,11.976229,
11.76305078,5.87258482,10.08156013,-3.205784082,12.09967598,
11.76555678,5.776872158,10.27298546,-2.973381281,12.15514206,
11.76806277,5.520840168,10.37109184,-2.884846687,12.09799829,
11.77056875,5.132903576,10.37827015,-2.959024191,11.95035625,
11.7730748,4.673182487,10.27298546,-3.155534744,11.71879961,
11.77558078,4.187140465,10.02891827,-3.327818155,11.36598964,
11.77808678,3.691826344,9.736694336,-3.361317635,10.94217778,
11.78059277,3.251247883,9.502198219,-3.404388428,10.60435026,
11.78309875,2.939881802,9.351449966,-3.46420908,10.39679114,
11.78560474,2.734098911,9.226723671,-3.471387386,10.23026182,
11.78811073,2.557030201,9.138189316,-3.330210924,10.05660043,
11.79061678,2.46819663,9.087940216,-3.267997503,9.968072013,
11.79312277,2.461018085,9.073583603,-3.361317635,9.984236859,
11.79562875,2.561815739,9.056833267,-3.528815269,10.05194836,
11.79813474,2.743670225,9.131011009,-3.701397419,10.22758188,
11.80064073,2.889632463,9.233902931,-3.957429647,10.45352517,
11.80314672,2.894418001,9.097511292,-3.871287823,10.30190452,
11.80565271,2.822633505,8.874979019,-3.593421459,9.98224375,
11.80815875,2.769991398,8.676075935,-3.452244759,9.739873708,
11.81066474,2.760420084,8.606683731,-3.315854073,9.627554836,
11.81317073,2.767598391,8.594719887,-3.018844843,9.520621564,
11.81567672,2.786741018,8.736195564,-2.729313374,9.567454726,
11.81818271,2.767598391,8.910871506,-2.714956284,9.717727073,
11.8206887,2.68624258,9.066405296,-2.925524712,9.898196757,
11.82319469,2.57617259,9.272486687,-3.323032379,10.18126803,
11.82570073,2.248056889,9.260522842,-3.406781197,10.1201384,
11.82820672,1.829013824,9.131011009,-3.401995659,9.914344561,
11.83071271,1.393221021,8.910871506,-3.337389469,9.616801146,
11.8332187,1.036690354,8.807980537,-3.318246841,9.469213808,
11.83572469,0.8162516356,8.829515457,-3.461816072,9.518969506,
11.83823068,0.6535396576,8.898907661,-3.397209883,9.547706879,
11.84073667,0.5913262963,9.083154678,-3.457030535,9.736756432,
11.84324271,0.5697908998,9.241081238,-3.653541088,9.953421854,
11.8457487,0.5482555032,9.200403214,-3.435495138,9.836189823,
11.84825469,0.6535396576,9.17886734,-3.378067255,9.802553653,
11.85076068,0.9218349457,9.245866776,-3.581457376,9.958045443,
11.85326667,1.240080357,9.349057198,-3.79471755,10.16575384,
11.85577266,1.465304732,9.310771942,-3.619742393,10.09654035,
11.85827865,1.599302888,9.087940216,-3.301496983,9.800423941,
11.86078469,1.730908036,8.918049812,-3.227319479,9.64070776,
11.86329068,1.968096614,8.839086533,-3.327818155,9.647654051,
11.86579667,2.291127682,8.961120605,-3.555136204,9.909083812,
11.86830266,2.564208508,9.188439369,-3.821038723,10.27632815,
11.87080865,2.695813894,9.274879456,-3.55992198,10.2938742,
11.87331464,2.784348249,9.267701149,-3.327818155,10.23314485,
11.87582068,2.808276415,9.052047729,-2.923131943,9.918199679,
11.87832667,2.906382322,8.934800148,-2.741277456,9.7873548,
11.88083266,3.011666298,8.961120605,-2.681456804,9.826597936,
11.88333865,3.061915636,9.016156197,-2.59052968,9.867990877,
11.88584464,3.088535786,9.071190834,-2.525923491,9.909886272,
11.88835063,3.102892876,9.205188751,-2.669492722,10.07420645,
11.89085662,3.033201694,9.389735222,-2.786741018,10.25345627,
11.89336266,2.860918522,9.590732574,-2.889632463,10.41714845,
11.89586865,2.57617259,9.703194618,-2.762812853,10.41257825,
11.89837464,2.207378864,9.722337723,-2.408375978,10.25654167,
11.90088063,1.848156333,9.72712326,-2.195414782,10.14161993,
11.90338662,1.494018674,9.767801285,-2.07098794,10.09608958,
11.90589261,1.15393877,9.827920914,-1.951047778,10.08594029,
11.9083986,0.8377870321,9.856635094,-1.850549221,10.06378035,
11.91090464,0.5243272781,9.887741089,-1.824228168,10.0682745,
11.91341063,0.2225325108,9.9140625,-1.838585138,10.08556153,
11.91591662,-0.09092725813,9.880562782,-1.838585138,10.05058128,
11.91842261,-0.399900496,9.854242325,-1.840977907,10.03270711,
11.9209286,-0.6367899179,9.813264847,-1.814656854,9.999932392,
11.92343459,-0.8258228898,9.83509922,-1.898405671,10.05062706,
11.92594058,-0.9457631707,9.849455833,-1.93190515,10.08159242,
11.92844657,-1.036690354,9.904491425,-1.939083695,10.1456258,
11.93095261,-1.113260746,9.93559742,-1.824228168,10.16283691,
11.9334586,-1.146760225,9.93559742,-1.666301847,10.13941403,
11.93596459,-1.180259824,9.878170013,-1.589731574,10.07464652,
11.93847058,-1.175474167,9.868598938,-1.762014747,10.09334833,
11.94097657,-1.17068851,9.83509922,-1.943869352,10.0934789,
11.94348256,-1.185045362,9.803693771,-1.874477386,10.05138844,
11.9459886,-1.230509043,9.693623543,-1.831406593,9.941556216,
11.94849459,-1.321436286,9.416056633,-1.599302888,9.641892247,
11.95100058,-1.055832982,9.41366291,-1.742872238,9.631689173,
11.95350657,-1.065404296,9.547661781,-2.099701881,9.833701226,
11.95601256,-1.342971683,9.473484039,-1.862513304,9.747790959,
11.95851855,-1.477268934,9.308379173,-1.6926229,9.575657608,
11.96102459,-1.477268934,9.142974854,-1.656730533,9.408563585,
11.96353058,-1.309472203,9.229117393,-1.951047778,9.523545177,
11.96603657,-1.173081279,9.389735222,-2.202593327,9.715691668,
11.96854256,-1.108475089,9.478269577,-2.185843468,9.790006275,
11.97104855,-1.02711916,9.569196701,-2.350948334,9.907141734,
11.97355454,-0.9050851464,9.731908798,-2.738884687,10.15040479,
11.97606053,-0.7707880139,10.02173901,-3.246462107,10.56261725,
11.97856652,-0.7013961077,10.27059269,-3.569493294,10.89579337,
11.98107256,-0.6702894568,10.45513916,-3.607778311,11.08040104,
11.98357855,-0.5817549825,10.66570759,-3.586242914,11.26751505,
11.98608454,-0.4884349108,10.87866879,-3.490530014,11.43537507,
11.98859053,-0.332901448,11.15174961,-3.459423304,11.68075136,
11.99109652,-0.1579262912,11.38385391,-3.4809587,11.905215,
11.9936025,0.004785645287,11.54925728,-3.397209883,12.03853818,
11.99610849,0.2584248483,11.8531456,-3.540779352,12.37339737,
11.99861454,0.4716851711,12.14297676,-3.562314749,12.66350891,
12.00112053,0.5769693851,12.40857983,-3.267997503,12.84467028,
12.00362652,0.5937191248,12.64576817,-2.91116786,12.99010597,
12.0061325,0.5697908998,12.84197998,-2.693420887,13.13375908,
12.00863849,0.4501497746,13.026227,-2.542673111,13.27969921,
12.01114448,0.2488535494,13.12194061,-2.317448616,13.32733363,
12.01365053,-0.06699903309,13.08365536,-1.850549221,13.21404778,
12.01615652,-0.4405784607,12.91376495,-1.328614831,12.98940538,
12.0186625,-0.8401798606,12.72233868,-1.151545882,12.80194757,
12.02116849,-1.244866014,12.40857983,-0.950548768,12.50704152,
12.02367448,-1.594517231,12.05414295,-0.7013961077,12.17935975,
12.02618047,-1.876870275,11.83639622,-0.7995018363,12.01091673,
12.02868646,-2.099701881,11.77418327,-1.110867858,12.0114182,
12.0311925,-2.257628202,11.90100288,-1.376471281,12.19120289,
12.03369849,-2.439482689,12.16451168,-1.486840129,12.49548374,
12.03620448,-2.602493763,12.47557926,-1.606481314,12.84499256,
12.03871047,-2.717349291,12.86590862,-1.733300924,13.26348084,
12.04121646,-2.772384167,13.28255844,-1.752443433,13.68150323,
12.04372245,-2.741277456,13.73958778,-1.773978829,14.12224754,
12.04622844,-2.691028118,14.18495178,-1.814656854,14.55154524,
12.04873448,-2.650350094,14.49631786,-1.881655931,14.85625176,
12.05124047,-2.633600473,14.70449352,-1.915155411,15.06073708,
12.05374646,-2.568994284,14.84806252,-2.008774519,15.20196919,
12.05625245,-2.557030201,14.90818214,-2.090130568,15.26960851,
12.05875844,-2.499303341,15.12114334,-2.226521492,15.48718474,
12.06126443,-2.434697151,15.51386547,-2.417947292,15.88880868,
12.06377047,-2.413161755,16.02144241,-2.717349291,16.42844953,
12.06627646,-2.401197433,16.90708733,-3.256033421,17.38439256,
12.06878245,-2.62402916,17.9461689,-3.849752426,18.54106526,
12.07128844,-3.155534744,19.03550148,-4.338187218,19.77694578,
12.07379443,-4.000500202,20.01715851,-4.481756687,20.89920524,
12.07630042,-5.003691196,20.77358818,-4.275974274,21.791348,
12.07880646,-6.08584547,21.2333107,-3.727718592,22.40060009,
12.08131245,-7.211070061,21.3338089,-2.973381281,22.71501551,
12.08381844,-8.130212784,21.25005913,-2.444268227,22.88317766,
12.08632443,-8.793622971,21.01287079,-2.365305185,22.90116181,
12.08883042,-9.202795982,20.56541252,-2.425125837,22.66073435,
12.09133641,-9.277272224,20.07697868,-2.588136673,22.26771889,
12.0938424,-9.131011009,19.63640022,-2.410768747,21.78934101,
12.09634839,-8.853444099,19.23649979,-2.13559413,21.28349498,
12.09885443,-8.455936432,18.87518311,-2.032702923,20.78237906,
12.10136042,-8.034500122,18.48963928,-2.056631088,20.26449319,
12.10386641,-7.637291908,18.20459557,-2.23130703,19.86741701,
12.1063724,-7.371389389,18.18066597,-2.789133787,19.81548041,
12.10887839,-7.325925827,18.46810341,-3.655933857,20.20163075,
12.11138438,-7.43360281,18.99243164,-4.469792843,20.8794147,
12.11389037,-7.491030216,19.86371803,-4.802694321,21.76576901,
12.11639641,-7.359425068,20.89801598,-4.591826439,22.62682212,
12.1189024,-6.988238335,21.76003075,-4.390829563,23.27259756,
12.12140839,-6.145665646,22.06631088,-4.819443703,23.40765515,
12.12391438,-4.522434711,22.11177444,-5.860620975,23.31801585,
12.12642037,-2.552244425,22.20060921,-7.215855598,23.48296346,
12.12892641,-0.7564310431,22.34178543,-8.393722534,23.87848702,
12.1314324,0.4118646085,22.21975136,-8.896514893,23.93814864,
12.13393839,0.7516453862,21.44866371,-8.680861473,23.15097194,
12.13644438,0.5650052428,20.00758743,-8.120641708,21.6001761,
12.13895037,0.2201396823,18.17109489,-7.574779034,19.68792596,
12.14145636,0.01196411345,16.29183197,-7.129714012,17.78360914,
12.1439624,0.1363908947,14.55374527,-6.902096748,16.10804282,
12.14646839,0.8452646136,13.30409431,-6.99063158,15.05265185,
12.14897438,2.130808592,12.82762337,-7.400103092,14.96161062,
12.15148037,3.61017108,13.10040474,-8.012965202,15.7753463,
12.15398636,4.994120121,13.73001671,-8.592327118,16.94941533,
12.15649235,6.143272877,14.32164192,-9.085547447,18.03874722,
12.15899834,7.187141895,15.03978729,-9.166903496,19.02320504,
12.16150438,8.164011955,16.1195488,-8.870193481,20.12886676,
12.16401037,8.712266922,17.11286926,-8.63779068,21.05624176,
12.16651636,8.597112656,17.44577026,-8.963513374,21.41517728,
12.16902235,7.895716667,17.32134438,-8.853444099,20.99416074,
12.17152834,6.746563435,18.51356697,-7.546065331,21.10003275,
12.17403433,4.998905659,20.50320053,-5.99491787,21.93876318,13.036770663929586
12.17654032,2.674278498,20.01715851,-4.785944462,20.75436495,13.04626581083953
12.17904636,1.307079315,15.21685696,-1.319043517,15.32974454,13.049757053261343
12.18155235,2.26241374,7.886145115,2.324627161,8.527232385,13.045901524011008
12.18405834,4.376472473,1.316650629,1.960619092,4.973038046,13.037884689231563
12.18656433,6.937989235,-3.114856958,-0.7348956466,7.640556269,13.03189489557369
12.18907032,9.67926693,-5.365306377,-3.425923824,11.58497626,13.029691639432864
12.19157631,12.35115242,-5.604588985,-4.970191956,14.44524807,13.030794519480919
12.19408235,14.61835194,-3.950251102,-5.427519798,16.08597738,13.033889208665112
12.19658834,16.07887077,-0.9002995491,-5.583053589,17.04438652,13.038324913608548
12.19909433,16.42583084,2.863311291,-5.882156372,17.68067402,13.04367576837362
12.20160032,15.83211136,6.545566559,-6.157629967,18.20485096,13.049643990844803
12.20410631,14.71167183,9.573982239,-6.358626842,18.66886604,13.056024467561153
12.2066123,13.20598793,11.84836006,-5.855835438,18.68348367,13.06236228453397
12.20911828,11.19960594,13.14347553,-4.567898273,17.86190967,13.067880757108265
12.21162433,8.719446182,13.12911892,-3.569493294,16.15994393,13.071858937985425
12.21413032,5.949454308,11.91057396,-3.208176851,13.69489603,13.073666289758364
12.21663631,3.165106058,10.07198906,-2.94227457,10.95991969,13.073136406146942
12.2191423,0.71336025,8.065607071,-2.513660192,8.478289204,13.070520933811004
12.22164828,-1.21854496,6.112166405,-2.087737799,6.57282885,13.066338454337588
12.22415433,-2.64077878,4.378865242,-1.776371717,5.413286419,13.061394345986415
12.22666032,-3.598206997,2.947060108,-1.561017632,4.90602007,13.056317362134601
12.22916631,-4.225724697,1.85294199,-1.417448282,4.826935142,13.051408455669055
12.2316723,-4.436293125,1.043868899,-1.366899967,4.75802212,13.04651016030029
12.23417828,-4.275974274,0.5123631358,-1.417448282,4.53383189,13.041331475015541
12.23668428,-3.758825302,0.2488535494,-1.482054472,4.048108348,13.035574908561806
12.23919027,-2.959024191,0.2536391914,-1.558624864,3.354022729,13.028948419126575
12.24169631,-1.85294199,0.5027918816,-1.611266971,2.506466626,13.021322639755017
12.2442023,-0.5458626747,0.9840483069,-1.702194214,2.0405348,13.01307599951921
12.24670828,0.7803592682,1.541875124,-1.855334878,2.535469778,13.005130577464865
12.24921428,2.059023857,2.123630047,-2.056631088,3.602653918,12.998128793602497
12.25172027,3.203391314,2.621636391,-2.27677083,4.724233132,12.992222638250327
12.25422625,4.144069672,3.073879719,-2.554637194,5.757449189,12.987391285105913
12.25673224,4.896014214,3.435495138,-2.817847729,6.611644867,12.983531050950646
12.25923828,5.405984402,3.638885021,-3.052344322,7.196037619,12.980340426500684
12.26174428,5.700301647,3.732504129,-3.232105255,7.541321524,12.977539205273509
12.26425027,5.798407555,3.739682674,-3.339782238,7.665565998,12.97474955257833
12.26675625,5.760122299,3.66789794,-3.409173965,7.632493126,12.971805946560023
12.26926224,5.633302689,3.526422262,-3.435495138,7.481469107,12.969055626433828
12.27176823,5.429912567,3.337389469,-3.39960289,7.223532291,12.966285519758912
12.27427428,5.204688549,3.165106058,-3.366103172,6.959693227,12.963334543677782
12.27678027,4.99651289,2.994916677,-3.299104214,6.694681141,12.960135329025318
12.27928625,4.77637291,2.841775894,-3.153141975,6.389971261,12.956686608159789
12.28179224,4.620540619,2.717349291,-2.999702215,6.142604998,12.95309819896614
12.28429823,4.548755646,2.645564556,-2.892025232,6.004498288,12.949275221250147
12.28680422,4.486542225,2.607279301,-2.805883646,5.899148203,12.9450764322118
12.28931027,4.421936035,2.583351135,-2.676671267,5.77856301,12.940564022186122
12.29181625,4.352544308,2.557030201,-2.45383954,5.612875724,12.935770738657453
12.29432224,4.211368084,2.564208508,-2.193022013,5.396307252,12.931085802294124
12.29682823,4.055535316,2.602493763,-1.94865489,5.197845358,12.92658486794561
12.29933422,3.900001764,2.628814697,-1.702194214,5.001814232,12.921922470883937
12.30184021,3.806681633,2.693420887,-1.472483277,4.890148068,12.916955698265255
12.3043462,3.754039526,2.786741018,-1.297508121,4.852037262,12.911751569510965
12.30685219,3.732504129,2.872882605,-1.165902853,4.852254218,12.906326194277485
12.30935823,3.725325823,2.951845884,-1.046261668,4.866837792,12.900712959128581
12.31186422,3.742075443,3.049951553,-0.9768698215,4.925404323,12.895092171375433
12.31437021,3.773182154,3.177070379,-0.9888339639,5.030752664,12.889588117742457
12.3168762,3.82821703,3.2895329,-1.019940615,5.149422412,12.884331610767681
12.31938219,3.90478754,3.394817114,-1.07497561,5.284668536,12.879453715770858
12.32188823,3.962215185,3.457030535,-1.12283206,5.3768914,12.874837739251403
12.32439422,4.026821613,3.54556489,-1.158724308,5.488985764,12.87048055473448
12.32690021,4.093820572,3.675076485,-1.192223907,5.629116439,12.866307026848581
12.3294062,4.16081953,3.739682674,-1.180259824,5.717574566,12.862181654428378
12.33191219,4.235296249,3.852145433,-1.199402332,5.849386696,12.858187633560714
12.33441818,4.345366001,3.95503664,-1.20179522,5.997402126,12.854386702696733
12.33692422,4.390829563,4.038785458,-1.173081279,6.080073348,12.850602095811869
12.33943021,4.42672205,4.1129632,-1.161117196,6.153090892,12.846798956784856
12.3419362,4.462614059,4.182354927,-1.161117196,6.225368272,12.84334785355006
12.34444219,4.496113777,4.225724697,-1.141974568,6.275021452,12.84026370512926
12.34694818,4.522434711,4.261617184,-1.084546804,6.307934568,12.837311628629
12.34945417,4.587040901,4.338187218,-1.022333503,6.395778167,12.834374085400238
12.35196021,4.630111694,4.390829563,-0.9720842242,6.454631383,12.831306799701146
12.3544662,4.713860512,4.479363918,-1.000798106,6.579268872,12.8280737600515
12.35697219,4.764110088,4.567898273,-1.1395818,6.69784191,12.825004290021248
12.35947818,4.795515537,4.632504463,-1.307079315,6.794521558,12.822366891921794
12.36198417,4.764110088,4.675575256,-1.4054842,6.821519973,12.819981429149644
12.36449016,4.723432064,4.79073,-1.477268934,6.887977054,12.817622599897193
12.3669962,4.670789719,4.965405941,-1.577767372,6.997205345,12.815398038624625
12.36950219,4.622933388,5.168796062,-1.635195136,7.124733607,12.813416740247806
12.37200818,4.560719967,5.331807137,-1.635195136,7.204317948,12.81196629562647
12.37451417,4.508078098,5.504090309,-1.613659739,7.295318775,12.810612459424972
12.37702016,4.481756687,5.707480431,-1.606481314,7.432513578,12.808909213147968
12.37952615,4.465006828,5.942276001,-1.563410521,7.595471184,12.80670848815874
12.38203214,4.465006828,6.205486298,-1.556231976,7.801679571,12.804787375867445
12.38453818,4.436293125,6.447161674,-1.5011971,7.968700213,12.803311085749911
12.38704417,4.441078663,6.765706062,-1.410269856,8.21503617,12.801755372481065
12.38955016,4.505684853,7.041179657,-1.381256819,8.4727373,12.79992751436366
12.39205615,4.639683247,7.24217701,-1.450947881,8.722444509,12.798143263981162
12.39456214,4.855336189,7.36899662,-1.642373681,8.976290548,12.796799273715456
12.39706813,5.09461832,7.481459141,-1.833799481,9.235268661,12.795965174694745
12.39957417,5.276473045,7.622934818,-1.924726725,9.468625877,12.79535611828889
12.40208016,5.405984402,7.886145115,-1.934298038,9.754868581,12.794812223552443
12.40458615,5.496912003,8.28126049,-1.972882271,10.13348811,12.794528897222683
12.40709214,5.513661385,8.678468704,-1.977667928,10.47031286,12.794439037469619
12.40959813,5.518447399,9.066405296,-2.001596212,10.80089599,12.794743031614445
12.41210412,5.544768333,9.461520195,-2.193022013,11.18365619,12.795376967460435
12.41461016,5.609374523,9.8638134,-2.40598321,11.59951088,12.796299982247186
12.41711615,5.729015827,10.22991467,-2.564208508,12.0019974,12.797330178953551
12.41962214,5.884549141,10.59392357,-2.571387053,12.38834802,12.79845724860364
12.42212813,6.061916828,11.00578785,-2.535494804,12.81807067,12.799830079818907
12.42463412,6.258128643,11.40538883,-2.537887573,13.25473281,12.801556949674056
12.42714011,6.459424496,11.76939774,-2.612065077,13.67719898,12.803589147328056
12.42964615,6.638886452,12.10229874,-2.798705101,14.08450206,12.805713164285594
12.43215214,6.856633186,12.45643616,-2.997309446,14.53134833,12.808117330559213
12.43465813,7.144071102,12.8754797,-3.203391314,15.06908907,12.811125079254394
12.43716412,7.486244678,13.31845093,-3.325425386,15.6359665,12.814740275885596
12.43967011,7.840681553,13.74437332,-3.397209883,16.18410085,12.81897377048867
12.4421761,8.1759758,14.13948822,-3.454637766,16.69449698,12.823801945790063
12.44468214,8.451150894,14.50349617,-3.41635251,17.13023109,12.829150227220921
12.44718813,8.656932831,14.79302788,-3.361317635,17.46638532,12.834922203103844
12.44969412,8.860622406,15.06850147,-3.2895329,17.78739421,12.840954487959513
12.45220011,9.018548965,15.33889008,-3.239283562,18.08614752,12.847353854598852
12.4547061,9.15733242,15.55215073,-3.291925669,18.34565082,12.853976896810309
12.45721209,9.2362957,15.70289898,-3.445066452,18.54073023,12.860947434679591
12.45971813,9.289237022,16.0070858,-3.69900465,18.87324444,12.868395849968802
12.46222412,9.320343018,16.35643768,-4.029214382,19.25191981,12.876175905986765
12.46473011,9.267701149,16.7156601,-4.409972191,19.61508174,12.884265943706431
12.4672361,9.166903496,17.03151321,-4.797908306,19.92798249,12.892563736368258
12.46974209,9.032905579,17.30459404,-5.231009483,20.20905288,12.90084476518408
12.47224808,8.877371788,17.47687721,-5.669195175,20.40560562,12.909018408404966
12.47475407,8.712266922,17.49601936,-5.990132332,20.4425041,12.916947139266831
12.47726011,8.489435196,17.34766579,-6.21505785,20.28888765,12.92448034078728
12.4797661,8.242975235,17.0051918,-6.322734833,19.92737225,12.931481258235932
12.48227209,7.919644833,16.51914978,-6.344270229,19.38692468,12.937757851305395
12.48477808,7.502994537,15.87757492,-6.253343105,18.64126102,12.943130628506117
12.48728407,7.004988194,15.05175209,-5.985346794,17.64793123,12.94742662252483
12.48979011,6.435197353,14.03420353,-5.403591633,16.35754982,12.950345639715582
12.4922961,5.82233572,12.87787247,-4.503292084,14.83303179,12.951675550150657
12.49480209,5.398806095,11.71196938,-3.342175007,13.32244226,12.951334970326565
12.49730808,5.31715107,10.60110188,-2.097309113,12.04384332,12.949566398349937
12.49981407,5.676373482,9.617053032,-0.926620543,11.20569277,12.94687258680012
12.50232006,6.457031727,8.805587769,-0.03349951655,10.9193753,12.943688918116294
12.50482605,7.524529934,8.137690544,0.4190430641,11.09126482,12.940271160174191
12.50733209,8.740981102,7.587042332,0.3496512175,11.57973307,12.936982912242755
12.50983808,10.02891827,7.09860754,-0.2440679073,12.28938565,12.933989886410506
12.51234407,11.27378368,6.677171707,-1.137188911,13.15203479,12.931333237033968
12.51485006,12.33440208,6.298806667,-2.130808592,14.01259382,12.929037897028246
12.51735605,13.14826107,5.935097694,-2.992523909,14.73286643,12.926694317042905
12.51986209,13.59362507,5.652445316,-3.296711445,15.08658632,12.92357678862246
12.52236808,13.6534462,5.494519234,-3.047558784,15.02976877,12.919175048585858
12.52487407,13.3902359,5.444269657,-2.496910334,14.66877809,12.913089270454268
12.52738006,12.8252306,5.458626747,-1.972882271,14.07747883,12.905362166461293
12.52988605,11.99193001,5.585446358,-1.618445396,13.32752647,12.896134793006919
12.53239204,10.92413235,5.800800323,-1.53230381,12.46330241,12.885565320433779
12.53489802,9.717552185,6.00927496,-1.862513304,11.57631901,12.87388792431079
12.53740407,8.522934914,6.205486298,-2.578565598,10.85345476,12.861537073947298
12.53991006,7.488637447,6.389733791,-3.526422262,10.45677019,12.849097079092363
12.54241605,6.696314335,6.540780544,-4.481756687,10.37827437,12.837152037535205
12.54492204,6.138487339,6.646064758,-5.233402252,10.45177988,12.826015753721896
12.54742802,5.824728489,6.7704916,-5.638088226,10.56196276,12.815762171406119
12.54993407,5.726622581,6.882954121,-5.642873764,10.58353854,12.806262528985666
12.55244006,5.827121258,6.966702938,-5.240580559,10.48589417,12.797164079023627
12.55494605,6.126523495,7.007380962,-4.575077057,10.37154801,12.787984812237761
12.55745204,6.550352097,7.000202656,-3.835395575,10.32570622,12.77829778060758
12.55995802,7.093822002,6.918846607,-3.246462107,10.42747645,12.767923749257996
12.56246402,7.692326546,6.722635269,-2.868097067,10.61092331,12.756954609371503
12.56497,8.240582466,6.425626278,-2.724527597,10.79902417,12.745684463891212
12.56747605,8.805587769,6.545566559,-2.841775894,11.33395376,12.734882390092716
12.56998204,9.547661781,8.92283535,-3.433102369,13.51151465,12.72662133223515
12.57248802,9.037691116,14.73081398,-2.446661234,17.45459517,12.722796795595235
12.57499402,6.423233509,17.48405647,-3.528815269,18.9579191,12.720787728276495
12.5775,3.840181351,15.96371651,-6.44237566,17.63778449,12.717504803757866
12.58000605,2.992523909,15.29103374,-6.016453266,16.70235379,12.7133041089278
12.58251204,4.117748737,15.94935894,-5.939883232,17.51057161,12.710185066382884
12.58501802,5.441876888,17.16102409,-7.081857681,19.34599391,12.709661825741415
12.58752402,5.250152111,18.99482346,-8.120641708,21.3146015,12.712463683564385
12.59003,3.583850145,21.10649109,-8.288438797,22.95705046,12.718460529223506
12.59253599,0.9409775138,23.32344055,-7.191927433,24.42523568,12.726955813821084
12.59504198,-2.913560629,25.81556511,-5.477769375,26.55067221,12.737690263508561
12.59754802,-8.173583031,28.83680344,-4.328616142,30.28375158,12.75171611012557
12.60005402,-14.93928909,31.31487083,-2.67188549,34.79859862,12.769736562823887
12.60256,-22.12852478,31.95644569,1.02711916,38.88368558,12.791398699672301
12.60506599,-28.63341331,30.37150002,7.680362701,42.44158742,12.816019170446662
12.60757198,-33.48635483,26.71347237,14.71645737,45.29370467,12.84260522879055
12.61007802,-35.35604858,21.41516495,18.70260048,45.37010829,12.868484484561865
12.61258402,-33.29463196,15.19771385,18.31017876,40.92390096,12.889626465548204
12.61509,-27.15135765,8.6593256,14.1490593,31.81785695,12.901588524966154
12.61759599,-19.18385696,2.84656167,8.103892326,21.01895221,12.901788866490477
12.62010198,-11.28814125,-0.6750751138,2.078166485,11.49767956,12.890759205292015
12.62260797,-4.326223373,-1.446162224,-2.604886532,5.252906595,12.87354965978819
12.62511396,1.177866936,-0.2009970993,-5.257330418,5.391409229,12.861375034998531
12.62762,5.214259624,2.322234392,-6.198307991,8.426167454,12.859755006457622
12.63012599,8.317152023,5.221437931,-6.26530695,11.6487125,12.867164419367853
12.63263198,10.92413235,7.802396297,-5.831906796,14.63643373,12.875813498729746
12.63513797,13.18923855,9.736694336,-4.756931305,17.07007983,12.882032692635168
12.63764396,15.03260899,10.97228813,-3.392424345,18.91768968,12.88646958601891
12.64015,16.51197243,11.49392319,-2.21216464,20.2397919,12.890229319835187
12.64265599,17.49841309,11.47478104,-1.697408557,20.99395761,12.89362982765015
12.64516198,18.06820297,11.06082249,-1.762014747,21.25809137,12.896275103096507
12.64766797,18.23809433,10.44317532,-2.164308071,21.12752292,12.897651516870095
12.65017396,18.09930992,9.729516029,-3.282354355,20.80918912,12.89779430889526
12.65267995,17.72363663,9.284450531,-4.218546391,20.44809161,12.897182582068243
12.65518599,17.03390694,9.119047165,-4.280759811,19.78979311,12.896506728222855
12.65769198,15.96610928,9.064012527,-4.338187218,18.86512223,12.896453216529848
12.66019797,14.79063511,9.004191399,-4.864907742,17.98626356,12.89795956428493
12.66270396,13.58883953,8.958727837,-5.511268616,17.18398807,12.901659423010463
12.66520995,12.40379429,9.028120041,-5.712265968,16.37043209,12.907577563937936
12.66771594,11.20439243,9.097511292,-5.678766251,15.509723,12.915168766466001
12.67022198,10.04566765,9.011369705,-5.688337803,14.64504727,12.923579011269782
12.67272797,8.891729355,8.846264839,-5.884549141,13.85450003,12.931955798019601
12.67523396,7.502994537,8.618648529,-5.738586903,12.78700157,12.939309496880803
12.67773995,6.181558132,7.859824181,-5.752943993,11.53624123,12.945169865264614
12.68024594,5.190331459,6.873383045,-7.232605457,11.24693366,12.950542605060026
12.68275193,4.134498596,5.683551788,-8.231010437,10.82341778,12.955544654692583
12.68525797,3.200998545,4.694717884,-8.563612938,10.27726784,12.960420312928559
12.68776396,2.540280342,4.144069672,-9.078369141,10.29772421,12.966014516993022
12.69026995,2.023131609,4.307080746,-9.88534832,10.97105817,12.972970591160747
12.69277594,1.522732496,5.262115955,-10.90977573,12.20785752,12.981453861972593
12.69528193,1.043868899,6.727420807,-11.66889858,13.50966495,12.99089122160837
12.69778792,0.6726822853,8.27408123,-11.70957661,14.35364434,13.000426821765693
12.70029396,0.6128616929,9.480662346,-11.28814125,14.75400593,13.009590596397864
12.70279995,0.9218349457,10.24187946,-10.65374374,14.80702976,13.018112921468843
12.70530594,1.498804331,10.38335514,-9.67926693,14.27405642,13.025590197940831
12.70781193,2.104487419,9.995418549,-8.283653259,13.15128019,13.031642706238605
12.71031792,2.702992201,9.308379173,-6.555137634,11.70136398,13.036128216621222
12.71282391,3.253640652,8.58754158,-4.709074974,10.32024394,13.039194819898745
12.71532995,3.840181351,8.048856735,-3.19382,9.47267511,13.041433997326887
12.71783594,4.503292084,7.788039684,-2.173879385,9.255212223,13.043564904975307
12.72034193,5.257330418,7.79761076,-1.905584097,9.595494121,13.046164829368411
12.72284792,5.937490463,7.905287743,-2.097309113,10.10673403,13.049410991289148
12.72535391,6.39212656,8.041678429,-2.441875458,10.55891233,13.053247089459148
12.7278599,6.727420807,8.298009872,-2.75084877,11.03097129,13.05766676422089
12.73036594,6.94756031,8.606683731,-2.863311291,11.42550439,13.062586269500237
12.73287193,6.995417118,8.877371788,-2.592922449,11.59598367,13.06775262611987
12.73537792,6.870990276,9.104690552,-1.869691849,11.55861778,13.07293327322468
12.73788391,6.617351055,9.277272224,-1.022333503,11.44125346,13.078067831949415
12.7403899,6.298806667,9.495018959,-0.2632105052,11.3973519,13.083265585650544
12.74289594,5.954239845,9.669695854,0.294616282,11.35970021,13.08852641592472
12.74540193,5.609374523,9.928419113,0.5267201066,11.41560435,13.093977752228357
12.74790792,5.286044121,10.08156013,0.385543555,11.38985342,13.099544740644907
12.75041391,5.022833824,10.16770172,-0.2632105052,11.34373385,13.105185892727206
12.7529199,4.819443703,10.10548782,-1.189831018,11.2589351,13.110769410874212
12.75542589,4.785944462,9.973882675,-2.228914261,11.28501922,13.116332612312103
12.75793193,4.919942379,9.859027863,-3.222533941,11.48002563,13.122041894427678
12.76043792,5.168796062,9.696016312,-4.012464523,11.69739529,13.12793467727869
12.76294391,5.518447399,9.619445801,-4.474578381,11.95863081,13.133977478058116
12.7654499,6.004489422,9.645767212,-4.701896667,12.29644463,13.14025940860845
12.76795589,6.40648365,9.657731056,-4.663611412,12.49256072,13.146643005664595
12.77046193,6.818347931,9.657731056,-4.455435753,12.63378587,13.153039072521603
12.77296792,7.21346283,9.700801849,-4.342973232,12.84527224,13.15951226902719
12.77547391,7.543672562,9.736694336,-4.122534275,12.98866818,13.165973793468234
12.7779799,7.675576687,9.724730492,-3.89043045,12.98538832,13.172240100450486
12.78048589,7.649255753,9.633803368,-3.787539244,12.87115902,13.17838268660806
12.78299188,7.455138206,9.669695854,-3.80907464,12.79027573,13.184434820424798
12.78549792,7.21346283,9.751050949,-3.684647799,12.6765007,13.19034965458564
12.78800391,6.868597507,9.849455833,-3.5766716,12.52924545,13.19600903699205
12.7905099,6.488138676,9.990633011,-3.46420908,12.40602418,13.201428634904575
12.79301589,6.011667728,10.06720352,-3.41635251,12.2131159,13.206450565974878
12.79552188,5.405984402,10.05523872,-3.454637766,11.92757374,13.211035009493962
12.79802787,4.781158924,9.93559742,-3.500101328,11.56833117,13.215323533089057
12.80053391,4.129712582,9.810872078,-3.588635683,11.23325612,13.219431357604439
12.8030399,3.497708559,9.62901783,-3.742075443,10.90665293,13.223382115589335
12.80554589,2.932703257,9.430413246,-3.916751623,10.62423577,13.227147587515121
12.80805188,2.434697151,9.29402256,-4.096213341,10.44440373,13.230713338793556
12.81055787,2.054238319,9.233902931,-4.230510235,10.36253228,13.23419207520199
12.81306386,1.771586061,9.229117393,-4.335794449,10.34960089,13.237640210872685
12.8155699,1.599302888,9.231510162,-4.421936035,10.36011911,13.241006632694138
12.81807589,1.486840129,9.229117393,-4.481756687,10.36693997,13.244169565377284
12.82058188,1.446162224,9.279664993,-4.577469826,10.44781305,13.247157768577724
12.82308787,1.448554993,9.291629791,-4.543970108,10.44415435,13.249930038577695
12.82559386,1.551446438,9.221938133,-4.448257446,10.35558416,13.252433597872274
12.82809985,1.74047935,9.150154114,-4.316651821,10.26586926,13.254673020420913
12.83060589,2.037488461,8.992227554,-4.211368084,10.13642623,13.25659016485758
12.83311188,2.444268227,8.834300995,-4.067499161,10.0281539,13.25818779709008
12.83561787,3.030808926,8.784051895,-4.17517662,10.18712277,13.259768573954265
12.83812386,3.722932816,8.853444099,-4.441078663,10.5814404,13.261515267362862
12.84062985,4.357329845,9.016156197,-4.596612453,11.01845007,13.263464341501939
12.84313589,4.879264355,9.229117393,-4.747360229,11.46827178,13.265621519092713
12.84564188,5.195116997,9.428020477,-4.881657124,11.81978794,13.267924496979914
12.84814787,5.219045162,9.483055115,-4.83858633,11.85658823,13.27005391115321
12.85065386,4.986941338,9.466305733,-4.637290478,11.66126027,13.271840666511801
12.85315985,4.543970108,9.384949684,-4.409972191,11.32134266,13.27317742954379
12.85566584,3.988536358,9.270093918,-4.103391647,10.89407575,13.273935239595078
12.85817188,3.390031576,9.183652878,-3.854538202,10.5208963,13.274145883286815
12.86067787,2.803490877,9.087940216,-3.773182154,10.23167249,13.273848819395177
12.86318386,2.27677083,9.018548965,-3.833002806,10.06030921,13.273129185150761
12.86568985,1.762014747,8.946763992,-3.897608995,9.916684818,13.271994937727747
12.86819584,1.338186026,8.877371788,-4.081856251,9.862049592,13.270513067445089
12.87070188,1.034297585,8.829515457,-4.400400639,9.919356858,13.26879340358715
12.87320787,0.7851449251,8.796015739,-4.718646049,10.01259037,13.266911958994955
12.87571386,0.5721837282,8.738588333,-4.848157883,10.00974301,13.264744070151568
12.87821985,0.3568296731,8.714659691,-4.771587372,9.941864362,13.262183571285336
12.88072584,0.1770688742,8.736195564,-4.500899315,9.829067146,13.259154065301859
12.88323183,0.0239282269,8.817551613,-4.091427803,9.720574596,13.25563886996013
12.88573782,-0.08853443712,8.925228119,-3.619742393,9.631722085,13.251658281466892
12.88824386,-0.1387837082,9.042476654,-3.155534744,9.578258948,13.2472330929821
12.89074985,-0.1076770201,9.152546883,-2.81545496,9.576403052,13.242397011590064
12.89325584,-0.01914258115,9.241081238,-2.681456804,9.622274132,13.237204029196041
12.89576183,0.1603191197,9.277272224,-2.705385208,9.665018948,13.231689892797341
12.89826782,0.3879363835,9.291629791,-2.827419043,9.720039982,13.225927667071709
12.90077386,0.7061817646,9.370592117,-2.91116786,9.837763345,13.220084466746696
12.90327985,0.9122636318,9.41366291,-2.913560629,9.896368519,13.214173782265595
12.90578584,1.039083242,9.468698502,-2.822633505,9.934948676,13.208212796509706
12.90829183,1.130010486,9.456734657,-2.561815739,9.862537906,13.202115144214243
12.91079782,1.151545882,9.305986404,-2.23130703,9.638784775,13.195718031737977
12.91330381,1.070189953,9.119047165,-1.793121457,9.355084836,13.188953796983457
12.91580985,0.9577272534,9.025727272,-1.558624864,9.209251096,13.181960253858147
12.91831584,0.8715856671,8.941978455,-1.438983679,9.098863351,13.174763262744966
12.92082183,0.8476574421,8.946763992,-1.565803289,9.12221733,13.167535436462932
12.92332782,0.8524430394,9.025727272,-1.879263043,9.258619849,13.160436229640629
12.92583381,0.8401798606,9.147761345,-2.236092806,9.454498974,13.15357009629669
12.92833985,0.7683951855,9.274879456,-2.434697151,9.619852925,13.146971961024445
12.93084584,0.6415755749,9.387342453,-2.607279301,9.763796541,13.140596355064485
12.93335183,0.4549354017,9.511769295,-2.808276415,9.928098396,13.134415177419152
12.93585782,0.2177468538,9.511769295,-2.88006115,9.940619751,13.128224267352765
12.93836381,-0.06699903309,9.416056633,-2.827419043,9.831628036,13.121820940920427
12.9408698,-0.3305086195,9.303593636,-2.784348249,9.716927789,13.115212096756517
12.94337584,-0.5195416212,9.238688469,-2.700599432,9.639321834,13.108577560581502
12.94588183,-0.6056832075,9.233902931,-2.499303341,9.585318601,13.102150406933244
12.94838782,-0.6391827464,9.188439369,-2.059023857,9.437984524,13.096042549914573
12.95089381,-0.6439684033,9.145368576,-1.673480392,9.319495604,13.090438851573811
12.9533998,-0.579362154,9.025727272,-1.443769336,9.158814508,13.08529702224694
12.95590578,-0.4597210586,8.985049248,-1.460519075,9.114580045,13.080712252343275
12.95841183,-0.2898306549,9.013762474,-1.683051586,9.174125484,13.0767611947376
12.96091782,-0.1770688742,9.044869423,-1.907976985,9.245614768,13.073422888375758
12.96342381,-0.09810572863,9.040083885,-2.07098794,9.274790156,13.070640388831992
12.9659298,0.007178467698,9.159725189,-2.46819663,9.486443574,13.068561264095164
12.96843578,0.04067798331,9.229117393,-2.614457846,9.5923747,13.067054454038495
12.97094183,0.02632104978,9.298808098,-2.492124796,9.62700425,13.065934958286114
12.97344782,0.01196411345,9.341878891,-2.315055847,9.624465072,13.064907443744989
12.97595381,-0.009571290575,9.36580658,-2.035095692,9.584364297,13.06370567751266
12.9784598,-0.009571290575,9.396913528,-1.987239242,9.604748579,13.062261225060597
12.98096578,0.009571290575,9.368199348,-1.919941068,9.562919238,13.060384607832576
12.98347183,0.05024927482,9.607481956,-2.32701993,9.885406228,13.058397136875707
12.98597782,0.007178467698,9.729516029,-2.628814697,10.07840267,13.056212568917685
12.98848381,-0.007178467698,9.940383911,-2.798705101,10.32685984,13.053957508454864
12.9909898,-0.0239282269,10.00738239,-2.970988512,10.43911144,13.051636646041137
12.99349578,-0.08853443712,10.0265255,-3.030808926,10.47496323,13.049417376423188
12.99600178,-0.2057827413,10.07198906,-3.124428272,10.54748132,13.047615188559227
12.99850782,-0.2970091105,10.10309505,-3.131606579,10.58147929,13.046436636312212
13.00101381,-0.347258389,10.1844511,-3.186641455,10.67699941,13.046006664580917
13.0035198,-0.4980062246,10.20837975,-3.102892876,10.68115029,13.046170323651117
13.00602578,-0.6750751138,10.28255749,-3.081058264,10.75544676,13.046775867521003
13.00853178,-0.8500502706,10.35434151,-3.222533941,10.87748585,13.04760616155146
13.01103777,-1.000798106,10.4096756,-3.272783279,10.95783068,13.048315764188596
13.01354381,-1.137188911,10.51735306,-3.272783279,11.07334748,13.048778226674365
13.0160498,-1.158724308,10.80209827,-3.447459221,11.39793596,13.049179214270959
13.01855578,-1.161117196,11.06560802,-3.507279873,11.66605701,13.049512561553502
13.02106178,-1.141974568,11.249856,-3.2895329,11.77643378,13.049696067900872
13.02356777,-1.063011408,11.45324516,-3.126821041,11.91989211,13.049824264625018
13.02607375,-0.9242277741,11.58514977,-3.033201694,12.01125325,13.049891565842037
13.0285798,-0.742074132,11.70957661,-2.990130901,12.10808577,13.049598312901667
13.03108578,-0.6128616929,11.80528927,-2.870489836,12.16470986,13.046877125590942
13.03359178,-0.5386841893,11.89621735,-2.836990356,12.24167807,13.039289494714605
13.03609777,-0.5626124144,11.95364475,-2.810669184,12.29251874,13.029646144735601
13.03860375,-0.5602195859,12.0975132,-2.865704298,12.44491594,13.020847652831746
13.0411098,-0.6248258352,12.30329609,-2.990130901,12.67684443,13.011543846739627
13.04361578,-0.7995018363,12.37029457,-2.659921408,12.67827168,13.000121119593725
13.04612178,-1.000798106,12.47318649,-2.152343988,12.69702968,12.98679502443434
13.04862776,-1.165902853,12.6000061,-1.683051586,12.76527109,12.972612794209493
13.05113375,-1.292722464,12.67687511,-1.197009563,12.79871579,12.957581165934828
13.0536398,-1.429412484,12.56650639,-0.5362913609,12.6589064,12.939946154451164
13.05614578,-1.491625786,12.35115242,-0.08614161611,12.44119504,12.91880749578237
13.05865178,-1.529910922,12.12383366,-0.1603191197,12.22103401,12.893709546747722
13.06115776,-1.496411443,11.95125198,-0.3783650696,12.05051166,12.864804360867732
13.06366375,-1.393221021,12.07597733,-0.8234301209,12.18393739,12.83288063986112
13.06616974,-1.352542996,12.21954727,-1.134796143,12.34643553,12.800324055606094
13.06867578,-1.316650629,12.49950695,-1.3310076,12.63894078,12.771090368343954
13.07118178,-1.232901812,12.93051434,-1.398006678,13.06417508,12.75034272781297
13.07368776,-1.156331539,13.35673618,-1.24965167,13.46481093,12.741546113110708
13.07619375,-1.07497561,13.78774357,-1.127617717,13.87548078,12.741959496209734
13.07869974,-1.031904817,14.13948822,-1.051047325,14.21599997,12.745041796139343
13.08120579,-1.10608232,14.4508543,-1.094118118,14.53436282,12.746842751231329
13.08371178,-1.316650629,14.6016016,-1.168295622,14.7073197,12.746627886283846
13.08621776,-1.513161182,14.73560047,-1.287936807,14.86897304,12.7441041135554
13.08872375,-1.730908036,14.84806252,-1.410269856,15.01498798,12.739958727464094
13.09122974,-1.915155411,15.02782345,-1.630409479,15.23684787,12.735555112332474
13.09373573,-2.059023857,15.29103374,-2.003988981,15.55863953,12.731665448813851
13.09624178,-2.154736757,15.7938261,-2.71974206,16.17049258,12.728702641042656
13.09874776,-2.353341103,16.5095787,-3.634099483,17.06783766,12.726872914552292
13.10125375,-2.755634308,17.29262924,-4.457828522,18.06933263,12.726343063354665
13.10375974,-3.378067255,18.21655846,-5.051547527,19.2034495,12.727375323128621
13.10626573,-4.165605068,19.04746628,-5.085047245,20.14983729,12.729883437275783
13.10877178,-5.04676199,19.607687,-4.622933388,20.7678287,12.733457580512061
13.11127776,-5.95902586,19.93101692,-3.833002806,21.15295098,12.73777910763465
13.11378375,-6.736992359,20.06262207,-3.131606579,21.39399051,12.742571580479641
13.11628974,-7.333104134,19.9788723,-2.822633505,21.46851216,12.747554657411698
13.11879573,-7.694719315,19.78714752,-2.693420887,21.40080439,12.7526862151382
13.12130172,-7.816753387,19.6459713,-2.659921408,21.31058431,12.75806506347494
13.12380776,-7.792825222,19.4832592,-2.449054003,21.12636693,12.76372865678435
13.12631375,-7.680362701,19.21735764,-1.898405671,20.78217385,12.769311646288386
13.12881974,-7.517351627,18.93261147,-1.208973646,20.4062728,12.77480133906628
13.13132573,-7.318747044,18.61406708,-0.7277171612,20.01442289,12.780318505673883
13.13383172,-7.024429798,18.2527504,-0.6750751138,19.56939543,12.785463529897934
13.13633776,-6.646064758,17.99402618,-1.029511929,19.20976444,12.789692119071473
13.13884375,-6.160022736,17.96770477,-1.48444736,19.05224078,12.792970176026275
13.14134974,-5.671587944,18.19023705,-1.83619225,19.14218471,12.795719868617006
13.14385573,-5.281258583,18.73131561,-2.291127682,19.59599813,12.798559803747821
13.14636172,-5.063511848,19.57179451,-2.827419043,20.41295155,12.802287996405942
13.14886771,-5.027619362,20.58694839,-3.263211966,21.44173391,12.807546362058865
13.15137375,-5.156831741,21.46062851,-3.504886866,22.34805856,12.81454429647142
13.15387974,-5.257330418,21.9801693,-3.509672642,22.87105523,12.82319499761327
13.15638573,-5.06111908,22.02324104,-3.555136204,22.87525007,12.832985149938295
13.15889172,-4.302295208,21.53959084,-4.089034557,22.34242424,12.84290812707258
13.16139771,-3.018844843,20.85494423,-5.216652393,21.70842199,12.852253074337764
13.16390375,-1.639980793,20.3306179,-6.681957245,21.46327361,12.8608960581675
13.16640974,-0.4716851711,19.9286232,-7.91007328,21.44625303,12.868939134331068
13.16891573,0.4046861231,19.34178352,-8.367402077,21.07799275,12.876148891631548
13.17142172,1.141974568,18.45614052,-8.278866768,20.2601299,12.88234059988194
13.17392771,1.7883358,17.34288025,-7.886145115,19.13543637,12.887554019267297
13.1764337,2.346162558,16.15544128,-7.031608582,17.77487781,12.891947051519647
13.17893974,2.973381281,15.10200119,-5.879763603,16.47674289,12.895840708405169
13.18144573,3.71336174,14.40778351,-4.912764072,15.66871188,12.89988179068561
13.18395172,4.560719967,14.08923912,-4.486542225,15.473716,12.904606985413528
13.18645771,5.398806095,13.99352551,-4.627718925,15.69654885,12.910200732839547
13.1889637,6.12173748,13.98395443,-5.202295303,16.1273224,12.916657562119566
13.19146974,6.725028038,13.998312,-6.102594852,16.68593434,12.923949021910648
13.19397573,7.325925827,14.17298794,-7.03400135,17.43616791,12.932281207579955
13.19648172,7.900502205,14.63031578,-7.689933777,18.31936561,12.941785327470283
13.19898771,8.216653824,15.01346684,-8.262117386,19.00474073,12.95202391457221
13.2014937,8.111070633,15.33410454,-8.484649658,19.31096861,12.962477603196081
13.20399974,7.550850868,15.84646797,-8.400900841,19.46024231,12.972937578358978
13.20650573,6.547959328,17.30937958,-8.22383213,20.25146433,12.9841626376363
13.20901172,4.881657124,19.67468452,-7.955537319,21.77646347,12.996907600867095
13.21151771,2.353341103,20.45743752,-7.414460182,21.88650689,13.009662551587422
13.2140237,0.06460621208,17.30937958,-4.469792843,17.87729967,13.018232478116879
13.21652969,-0.332901448,11.16610718,0.1962114573,11.17279159,13.019755601337128
13.21903573,1.034297585,4.829015255,1.683051586,5.217453638,13.01480389244447
13.22154172,3.363710403,-0.08614161611,-0.06221338734,3.365388323,13.007387566829605
13.22404771,6.131309032,-3.351746321,-2.827419043,7.53800055,13.003657573754339
13.2265537,9.080761909,-4.829015255,-5.013262749,11.44169693,13.00317776451283
13.22905969,11.9153595,-4.321437836,-6.08584547,14.06016117,13.004910269757417
13.23156573,14.29023552,-2.030309916,-6.219843388,15.71685214,13.008265541213927
13.23407172,15.84168243,1.371685624,-5.939883232,16.97417558,13.012798846923445
13.23657771,16.31097412,5.092225552,-5.635695457,17.99276802,13.018109884438427
13.2390837,15.89193153,8.400900841,-5.372485161,18.76145569,13.024006574748856
13.24158969,14.80977726,10.90738297,-5.027619362,19.06770731,13.030090099807577
13.24409573,13.19880962,12.42772293,-4.548755646,18.69085473,13.03566173156906
13.24660172,11.24507046,13.0884409,-4.179962158,17.75474523,13.040246254523082
13.24910771,8.965906143,13.05972672,-3.524029493,16.22845398,13.043235236458889
13.2516137,6.301199436,12.1669054,-2.679064035,13.9612351,13.043949662551315
13.25411969,3.569493294,10.48863888,-2.37248373,11.33055634,13.042254965182462
13.25662573,1.146760225,8.467900276,-2.554637194,8.91888812,13.03866051408772
13.25913172,-0.9002995491,6.490531445,-2.753241539,7.10759289,13.033917905520353
13.26163771,-2.463410854,4.77637291,-2.803490877,6.061492581,13.028682795892424
13.2641437,-3.54556489,3.387638569,-2.777169704,5.635583113,13.023525268255089
13.26664969,-4.199104786,2.324627161,-2.724527597,5.519005623,13.018800287674958
13.26915568,-4.503292084,1.539482236,-2.652743101,5.44854945,13.014381008638985
13.27166172,-4.453042984,1.017547846,-2.552244425,5.232489564,13.009922084960925
13.27416771,-4.093820572,0.6367899179,-2.465803623,4.821312662,13.004977380357559
13.2766737,-3.430709362,0.4692923427,-2.37248373,4.197461266,12.999161896026184
13.27917969,-2.48733902,0.4956133962,-2.243271112,3.385964164,12.99211783237531
13.28168568,-1.345364571,0.7731808424,-2.161915302,2.661144907,12.983623527095641
13.28419172,-0.1052841991,1.223330617,-2.147558212,2.473788357,12.974721457357923
13.28669771,1.168295622,1.766800404,-2.183450699,3.04203144,12.966645440240923
13.2892037,2.355733871,2.310270309,-2.264806747,4.002022061,12.959894917845965
13.29170969,3.390031576,2.779562712,-2.377269268,4.986952188,12.954466046736634
13.29421568,4.196712017,3.119642496,-2.55942297,5.821959034,12.950150297678299
13.29672167,4.773980141,3.337389469,-2.813062191,6.468568137,12.946867907781279
13.29922771,5.135296345,3.433102369,-3.093321562,6.908407828,12.944342944729657
13.3017337,5.338985443,3.46420908,-3.375674486,7.204213236,12.942316764284143
13.30423969,5.405984402,3.409173965,-3.638885021,7.354496494,12.940508941558454
13.30674568,5.365306377,3.299104214,-3.89043045,7.403110848,12.938601344657949
13.30925172,5.18793869,3.102892876,-4.017250061,7.258164376,12.936302593226719
13.31175771,4.96779871,2.930310488,-4.108177185,7.081162571,12.933587539353796
13.3142637,4.740181446,2.803490877,-4.132105827,6.884996718,12.930332315814777
13.31676969,4.563112736,2.731706142,-4.100998878,6.715832643,12.926551325542288
13.31927568,4.41236496,2.705385208,-4.089034557,6.596080448,12.922544560041672
13.32178167,4.278367043,2.691028118,-4.031607151,6.46528523,12.9186790057349
13.32428771,4.14646244,2.669492722,-3.950251102,6.318530362,12.915022773248937
13.3267937,4.053142548,2.717349291,-3.892823458,6.242277321,12.91161568417623
13.32929969,3.947858334,2.753241539,-3.787539244,6.12465329,12.908433944039567
13.33180568,3.775574923,2.743670225,-3.54556489,5.861204884,12.905150715480895
13.33431167,3.643670797,2.760420084,-3.2895329,5.631809888,12.901506743373272
13.33681771,3.54556489,2.774776936,-3.049951553,5.438071525,12.897357624494939
13.3393237,3.4809587,2.817847729,-2.786741018,5.274776279,12.89285170303582
13.34182969,3.421138287,2.836990356,-2.573779821,5.135858646,12.887963432692052
13.34433568,3.370888948,2.853740215,-2.322234392,4.989939688,12.882674783018878
13.34684167,3.373281717,2.908775091,-2.142772675,4.942820734,12.877233152995952
13.34934766,3.411566973,3.004487991,-2.097309113,5.006440134,12.871861911910758
13.3518537,3.457030535,3.162713289,-2.13559413,5.149230793,12.86680248200149
13.35435969,3.4809587,3.2895329,-2.216950178,5.277591142,12.862042100104363
13.35686568,3.502494097,3.401995659,-2.331805706,5.410947903,12.857487971705392
13.35937167,3.502494097,3.552743435,-2.489732027,5.5756808,12.853078970212815
13.36187766,3.507279873,3.670290947,-2.609672308,5.708102776,12.848813766854875
13.3643837,3.598206997,3.766003847,-2.707777977,5.870429298,12.844727138991553
13.36688969,3.754039526,3.919144392,-2.825026274,6.118274183,12.84109546402174
13.36939568,3.945465326,4.108177185,-2.954238653,6.416489885,12.837910305252302
13.37190167,4.100998878,4.285545349,-3.126821041,6.705303913,12.83498386146542
13.37440766,4.235296249,4.395615101,-3.210569859,6.896877935,12.832173864047075
13.3769137,4.376472473,4.505684853,-3.294318676,7.092759889,12.829491775241578
13.37941969,4.465006828,4.55354166,-3.265604734,7.16485882,12.826844613425894
13.38192568,4.591826439,4.625326157,-3.232105255,7.274958177,12.824317614066187
13.38443167,4.735395908,4.742574692,-3.215355396,7.433337033,12.821940948989933
13.38693766,4.845765114,4.876871586,-3.122035265,7.550656938,12.819726198031592
13.3894437,4.929513931,5.003691196,-3.030808926,7.650021956,12.817612382264453
13.39194969,4.96779871,5.058726311,-2.925524712,7.66996941,12.815447406150469
13.39445568,4.96779871,5.065904617,-2.839383125,7.642284354,12.813228327454436
13.39696167,4.90319252,5.075475693,-2.765205622,7.579453313,12.810925931752418
13.39946766,4.831408024,5.070690155,-2.609672308,7.474275329,12.808541738406278
13.40197365,4.788337231,5.097011566,-2.494517565,7.424979341,12.806182094219151
13.40447969,4.800301552,5.137689114,-2.461018085,7.449520416,12.804011385487652
13.40698568,4.876871586,5.250152111,-2.45383954,7.57425258,12.80212990626791
13.40949167,4.951049328,5.415555954,-2.427518606,7.72877625,12.80044600559333
13.41199766,5.020441055,5.685945034,-2.48733902,7.982584464,12.798928405780485
13.4145037,5.06111908,5.973382473,-2.557030201,8.236177994,12.797376062569615
13.41700969,5.099404335,6.289235115,-2.600100994,8.504053627,12.795979172452146
13.41951568,5.144867897,6.624529362,-2.717349291,8.816917949,12.794895256827688
13.42202167,5.209474087,6.859025955,-2.925524712,9.096348287,12.794226339559726
13.42452766,5.259723186,6.887740135,-3.253640652,9.256988153,12.79386082455232
13.42703365,5.338985443,6.801598549,-3.564707518,9.352734791,12.793554589170565
13.42953969,5.439484119,6.725028038,-3.773182154,9.436678079,12.793241602312197
13.43204568,5.547161102,6.758527756,-3.775574923,9.523846897,12.79289481976272
13.43455167,5.657230854,6.914061069,-3.605385542,9.633654878,12.792583415197408
13.43705766,5.784050465,7.24217701,-3.349353552,9.855076703,12.79232667035369
13.43956365,5.925526142,7.622934818,-3.133999348,10.1510072,12.792323671670857
13.44206969,6.061916828,8.001000404,-2.97577405,10.46986506,12.792951607400651
13.44457568,6.234200478,8.398508072,-2.980559587,10.87584153,12.793915092475176
13.44708167,6.411269188,8.798408508,-3.07148695,11.31151612,12.795080940704889
13.44958766,6.619743824,9.159725189,-3.236890793,11.7558086,12.796577628549413
13.45209365,6.847062111,9.495018959,-3.413959742,12.19396431,12.798370234650367
13.45459969,6.995417118,9.810872078,-3.531208038,12.55621367,12.800684458566836
13.45710568,7.134500027,10.09352398,-3.614956856,12.87820756,12.803302909091219
13.45961167,7.254140854,10.30887794,-3.69900465,13.13690068,12.806013203043365
13.46211766,7.349853992,10.50778198,-3.746861219,13.35937143,12.808822403313995
13.46462365,7.474280834,10.75184917,-3.792324781,13.63263958,12.811875284125419
13.46712969,7.656434059,10.98664474,-3.830610037,13.92842125,12.815091745224905
13.46963568,7.845467091,11.2378912,-3.856930971,14.2378885,12.81826520725035
13.47214167,8.048856735,11.55165005,-3.911965847,14.61260382,12.821488345658633
13.47464766,8.195118904,11.90100288,-3.95503664,14.98119349,12.824795476236181
13.47715365,8.300402641,12.24347496,-4.010071754,15.32579651,12.82818450124679
13.47965969,8.30279541,12.52822113,-4.036392689,15.56230067,12.831593388492362
13.48216568,8.219046593,12.77737427,-4.002892971,15.71105255,12.834961118739376
13.48467167,8.034500122,13.02861977,-3.962215185,15.81130211,12.838198173813137
13.48717766,7.823931694,13.2777729,-3.945465326,15.90848381,12.841215528510416
13.48968365,7.582256794,13.53859043,-3.974179268,16.01805699,12.844046435944055
13.49218964,7.311568737,13.79252911,-4.09860611,16.1397481,12.84677785998193
13.49469568,7.022037029,14.06291771,-4.259224415,16.28544292,12.849431751225724
13.49720167,6.746563435,14.39821243,-4.453042984,16.51224489,12.85202282108765
13.49970766,6.502495766,14.75474262,-4.625326157,16.77434121,12.854730155144559
13.50221365,6.31316328,15.15464306,-4.814658165,17.1084824,12.85766735358267
13.50471964,6.164808273,15.5042944,-5.022833824,17.42460517,12.860935728061557
13.50722568,6.138487339,15.82253933,-5.309972763,17.78284534,12.864659546870982
13.50973167,6.253343105,16.17219162,-5.678766251,18.24534099,12.868972916638773
13.51223766,6.531209469,16.46411514,-6.124130249,18.74109804,12.873975490916012
13.51474365,6.921239376,16.70130348,-6.557530403,19.23118035,12.87965541296459
13.51724964,7.325925827,16.73719597,-6.878168583,19.52209316,12.88570609500829
13.51975568,7.697112083,16.55025673,-7.053143978,19.56791691,12.891773712027414
13.52226167,7.895716667,16.107584,-7.055536747,19.2763379,12.897476990551855
13.52476766,7.831110477,15.39392567,-6.887740135,18.59409054,12.90229240886957
13.52727365,7.34028244,14.43889046,-6.457031727,17.4371604,12.905698900925348
13.52977964,6.435197353,13.2203455,-5.652445316,15.75244229,12.907032785183432
13.53228568,5.202295303,11.79571819,-4.515256405,13.6598091,12.905872392737844
13.53479167,3.957429647,10.28255749,-3.061915636,11.43536468,12.90212499573064
13.53729766,2.992523909,8.846264839,-1.553839207,9.467101839,12.89609084667815
13.53980365,2.535494804,7.651648521,-0.2703889608,8.065331313,12.888358203668492
13.54230964,2.626421928,6.701099873,0.5865406394,7.221278389,12.87951305243185
13.54481568,3.169891834,6.011667728,0.8955138922,6.85494772,12.87007255323124
13.54732167,3.995714664,5.585446358,0.7516453862,6.908539461,12.860430071562071
13.54982766,4.924727917,5.350949764,0.3017947674,7.278508674,12.850941374600414
13.55233365,5.843871117,5.334199905,-0.323330164,7.918905269,12.841981959138064
13.55483964,6.674778938,5.480162144,-1.024726272,8.696833615,12.833495527255424
13.55734568,7.378567696,5.745765209,-1.728515267,9.510249424,12.82534972688056
13.55985167,7.967501163,6.112166405,-2.35812664,10.31505764,12.817247165632752
13.56235766,8.417651176,6.495316982,-2.920739174,11.02618299,12.808780556327461
13.56486365,8.71705246,6.842276573,-3.500101328,11.62129346,12.799848962916462
13.56736964,8.841479301,7.134500027,-4.065106392,12.06639701,12.790395447215456
13.56987568,8.700303078,7.330711365,-4.493721008,12.23225782,12.780361096335364
13.57238167,8.202297211,7.361817837,-4.66839695,11.96945995,12.769727439884146
13.57488766,7.438388348,7.251748085,-4.455435753,11.30346758,12.758426215073117
13.57739365,6.583851337,7.093822002,-3.911965847,10.43900789,12.746501085921384
13.57989964,5.834300041,6.930810928,-3.145963669,9.590218168,12.734174005113607
13.58240568,5.405984402,6.83509779,-2.267199516,9.004633407,12.721886516964494
13.58491167,5.384449005,6.830312252,-1.450947881,8.817636095,12.710138078599298
13.58741766,5.810371399,6.859025955,-0.9074779749,9.034941567,12.69931516219964
13.58992365,6.595815659,6.904489517,-0.6870391965,9.573337065,12.68952038668681
13.59242964,7.569993496,6.921239376,-0.7707880139,10.28603277,12.680540391965806
13.59493563,8.561220169,6.909275532,-1.067797065,11.05317917,12.671930737298876
13.59744167,9.428020477,6.844669342,-1.443769336,11.73974184,12.663167529077707
13.59994766,10.15095139,6.753741741,-1.690230131,12.30900969,12.65383413001411
13.60245365,10.72792149,6.59342289,-1.683051586,12.70410121,12.643811527615215
13.60495964,11.20917797,6.449554443,-1.517946839,13.02100556,12.63324612021593
13.60746568,11.70718384,6.7202425,-1.350150228,13.56623449,12.622568027136449
13.60997167,12.52104282,8.886942863,-1.606481314,15.4381038,12.61333316600607
13.61247766,12.87787247,14.77867126,-0.7444669604,19.61639505,12.60808768196588
13.61498365,11.1445713,20.22772598,-1.295115232,23.130925,12.606526808749976
13.61748964,8.714659691,20.73530388,-5.080261707,23.05877663,12.605543207936488
13.61999568,7.323532581,21.15674019,-5.889334679,23.15007663,12.605638778965698
13.62250167,6.497709751,22.62413788,-5.415555954,24.15367659,12.607902342638377
13.62500766,4.848157883,24.13012123,-5.688337803,25.2611277,12.612774489188254
13.62751365,1.85294199,25.66003227,-5.690730572,26.34872036,12.62052767081926
13.63001964,-2.226521492,27.29283333,-5.496912003,27.92977248,12.6316331919723
13.63252563,-7.172784805,29.25823975,-4.014857292,30.39099396,12.646532848491098
13.63503167,-13.28016567,31.34597588,-1.307079315,34.06818839,12.665692631151595
13.63753766,-20.79512405,32.17897797,1.80508554,38.35599225,12.689016634714413
13.64004365,-28.92563629,31.13510895,6.34187746,42.96867293,12.716303862703688
13.64254964,-36.2994194,27.84826851,13.35434341,47.66038602,12.747343277652723
13.64505563,-41.00370789,22.52124596,20.05544281,50.89922756,12.780410705678586
13.64756167,-41.34378815,15.35085487,22.52363968,49.5204191,12.81070959497732
13.65006766,-35.84209061,7.835896015,18.47049713,41.0757348,12.831154456196936
13.65257365,-26.71586418,2.099701881,9.997811317,28.60248902,12.837904894548213
13.65507964,-17.94377708,-1.417448282,1.769193292,18.08641315,12.833041113651353
13.65758563,-10.39771175,-2.597707987,-3.579064369,11.29912378,12.819985948683751
13.66009167,-4.252045631,-1.565803289,-6.07148838,7.575922594,12.802297277462134
13.66259766,0.794716239,0.9696913958,-7.141678333,7.250892684,12.78570251696531
13.66510365,5.278865814,4.079463482,-7.749754429,10.22580756,12.776756500694065
13.66760964,9.428020477,7.115357399,-8.041678429,14.28931324,12.778230557363386
13.67011568,13.09801197,9.672088623,-7.778468132,18.04471619,12.78970866707362
13.67262167,16.19611931,11.42453194,-7.096214771,21.05208956,12.80764013039885
13.67512766,18.56860352,12.30808163,-6.08584547,23.09370964,12.824047419506227
13.67763365,20.03630066,12.43490124,-5.049154758,24.115847,12.837747154297249
13.68013964,20.68744659,11.95603752,-3.967000723,24.22094908,12.849074774799139
13.68264563,20.74248314,11.21635628,-2.94227457,23.76371677,12.858308871267502
13.68515167,20.41436577,10.45513916,-2.063809633,23.02858169,12.86540226999223
13.68765766,19.87328911,9.916455269,-1.410269856,22.25472009,12.870468624712046
13.69016365,19.11925125,9.67926693,-1.060618639,21.45597559,12.87389833889188
13.69266964,18.32692719,9.72712326,-1.259222865,20.78650594,12.876488817188216
13.69517563,17.5247345,10.17248726,-1.491625786,20.31799113,12.879183168866868
13.69768167,16.33250999,10.67049313,-1.211366415,19.5468083,12.882418018780092
13.70018766,15.14507198,10.46231747,-2.233700037,18.5424569,12.886532847575786
13.70269365,14.02463245,9.581160545,-4.42672205,17.55234517,12.891832465664619
13.70519964,12.83001614,8.127820015,-6.588637352,16.55538929,12.898332853487275
13.70770568,11.75982571,6.50010252,-7.766504288,15.5197752,12.905817970273901
13.71021167,11.07996559,4.998905659,-8.369794846,14.75832514,12.914270942963565
13.71271766,10.79491997,3.983750582,-8.793622971,14.48200161,12.923862048877924
13.71522365,10.72074318,3.849752426,-9.432806015,14.78961654,12.934771763839562
13.71772964,10.56281662,4.701896667,-10.04327488,15.31496972,12.946811742396747
13.72023563,10.22991467,6.207879066,-10.39531898,15.85091711,12.959632518033176
13.72274167,9.669695854,7.890930653,-10.39771175,16.2444518,12.972915493368985
13.72524766,8.989834785,9.255437851,-10.15813065,16.42156745,12.98642425870991
13.72775365,8.374580383,10.05284595,-9.703194618,16.28942277,12.99988840579903
13.73025964,7.855038643,10.29930687,-8.896514893,15.71385794,13.012809664127122
13.73276568,7.476673603,10.12463093,-7.771289825,14.79194866,13.024593750697735
13.73527167,7.215855598,9.798908234,-6.662814617,13.873726,13.034962668069657
13.73777766,7.189534664,9.573982239,-5.848656654,13.32506395,13.044108107180469
13.74028365,7.400103092,9.526125908,-5.068297386,13.08419806,13.052282300688589
13.74278964,7.788039684,9.660123825,-4.388436794,13.16168424,13.059837269471402
13.74529563,8.091927528,9.839884758,-3.535993576,13.22141724,13.066910316165911
13.74780167,8.183154106,9.940383911,-2.533101797,13.12218915,13.073468364881224
13.75030766,7.967501163,9.937990189,-1.410269856,12.81536519,13.079475206872823
13.75281365,7.514958382,9.815657616,-0.5626124144,12.37490471,13.084925420381763
13.75531964,6.808776855,9.597910881,-0.1531406492,11.76872073,13.089753956210778
13.75782568,5.88694191,9.363413811,-0.2009970993,11.06209759,13.093964009815567
13.76033167,4.915156841,9.133403778,-0.6152545214,10.39020546,13.09762819842568
13.76283766,3.962215185,8.913264275,-1.091725349,9.815156313,13.100885610991782
13.76534365,3.12921381,8.705088615,-1.482054472,9.368406072,13.103833632449495
13.76784964,2.583351135,8.570791245,-1.659123421,9.104112047,13.106667197081302
13.77035563,2.121237278,8.467900276,-1.939083695,8.942316716,13.109511618071128
13.77286167,1.553839207,8.477471352,-2.027917147,8.854060354,13.112458176069554
13.77536766,0.9864411354,8.621041298,-1.929512382,8.889231531,13.115638196080148
13.77787365,0.5362913609,8.824729919,-1.8840487,9.039530191,13.11923013758943
13.78037964,0.2225325108,9.075976372,-2.188236237,9.338696143,13.123426540690755
13.78288568,0.03110669367,9.195617676,-2.722134829,9.590118356,13.128190330501617
13.78539167,0.03349951655,9.2362957,-3.361317635,9.828974347,13.133440029942669
13.78789766,0.1986042857,9.219545364,-3.981357813,10.0444348,13.139078485289367
13.79040365,0.6200401783,9.25783062,-4.599005222,10.35580642,13.14513358892693
13.79290964,1.319043517,9.356235504,-5.233402252,10.80127389,13.151706329285414
13.79541563,2.233700037,9.444769859,-5.748157978,11.2798233,13.158774057047244
13.79792167,3.217748165,9.461520195,-6.109773636,11.71339411,13.166239469176505
13.80042766,4.100998878,9.416056633,-6.234200478,12.01439012,13.173884101849275
13.80293365,4.893621445,9.44237709,-6.107380867,12.26401716,13.18163591133953
13.80543964,5.712265968,9.626625061,-5.954239845,12.67891418,13.189707766933148
13.80794563,6.46421051,9.842277527,-5.575874805,13.02869235,13.197994853896176
13.81045167,6.918846607,10.00738239,-4.99651289,13.15231089,13.206312280791913
13.81295766,7.101000309,10.1772728,-4.194318771,13.09936628,13.214448909435752
13.81546365,7.225427151,10.4168539,-3.538386583,13.16198398,13.222504485661263
13.81796964,7.218248844,10.58674431,-3.093321562,13.18146083,13.230565113653432
13.82047568,7.026822567,10.58195877,-2.856132984,13.01966138,13.238514361997657
13.82298167,6.698707104,10.50538826,-2.882453918,12.78844791,13.246174746062822
13.82548766,6.272485256,10.36869907,-3.093321562,12.5069033,13.253496712456075
13.82799365,5.784050465,10.1270237,-3.461816072,12.16536145,13.260436490240107
13.83049964,5.281258583,9.861420631,-3.861716747,11.83436375,13.266975690736404
13.83300568,4.747360229,9.593125343,-4.225724697,11.50748592,13.273083849076263
13.83551167,4.26879549,9.370592117,-4.53918457,11.25321324,13.278874632456361
13.83801766,3.868895054,9.238688469,-4.829015255,11.11940205,13.28451682008793
13.84052365,3.540779352,9.138189316,-5.056333542,11.02769837,13.290030388895897
13.84302964,3.279961586,8.977870941,-5.075475693,10.8222349,13.295250753736857
13.84553568,3.093321562,8.817551613,-4.99651289,10.5963671,13.300111936303052
13.84804167,3.042773008,8.683254242,-5.010869503,10.47693586,13.304667452357299
13.85054766,3.033201694,8.580363274,-5.027619362,10.39711031,13.308955921950021
13.85305365,3.105285645,8.568398476,-5.097011566,10.44221137,13.313123457606125
13.85555964,3.157927752,8.633005142,-5.147260666,10.53544388,13.317259875246314
13.85806568,3.153141975,8.805587769,-5.15922451,10.68167954,13.32145679068359
13.86057167,3.035594702,8.970691681,-5.147260666,10.7787957,13.325664043548953
13.86307766,2.762812853,9.052047729,-5.039583683,10.72241142,13.32972506798065
13.86558365,2.353341103,8.975478172,-4.687539577,10.39569382,13.333290224121486
13.86808964,1.891227245,8.793622971,-4.287938118,9.964484871,13.336228401901614
13.87059568,1.448554993,8.690432549,-3.931108475,9.647566703,13.338652243518188
13.87310167,1.103689432,8.6593256,-3.660719633,9.46588181,13.34074415579694
13.87560766,0.8715856671,8.721838951,-3.437887907,9.415370918,13.342637095982656
13.87811365,0.7516453862,8.894122124,-3.306282759,9.518502236,13.344434331367745
13.88061964,0.6248258352,9.03051281,-3.363710403,9.656868882,13.346152418911688
13.88312568,0.4549354017,9.133403778,-3.490530014,9.788249617,13.347712651515655
13.88563167,0.308973223,9.214759827,-3.670290947,9.923623267,13.34912104804407
13.88813766,0.1196411327,9.224330902,-3.751646757,9.958787476,13.3502061918834
13.89064365,-0.06221338734,9.291629791,-3.907180309,10.07989646,13.351018816508882
13.89314964,-0.1986042857,9.233902931,-3.919144392,10.03315004,13.3513648100969
13.89565568,-0.2826521695,9.262915611,-4.022035599,10.10238923,13.351355126612303
13.89816167,-0.3687937856,9.341878891,-4.230510235,10.26177016,13.351068750044316
13.90066766,-0.4956133962,9.250652313,-4.108177185,10.13396865,13.350153128246934
13.90317365,-0.5530411601,9.028120041,-3.801896095,9.811586004,13.348399656274005
13.90567969,-0.5362913609,8.733802795,-3.380460262,9.380534701,13.345645390537845
13.90818568,-0.3496512175,8.613862038,-3.078665495,9.154182454,13.341971100844166
13.91069167,0.06460621208,8.779266357,-3.215355396,9.349770161,13.337835896418582
13.91319766,0.5075774789,8.989834785,-3.4809587,9.653591966,13.33343136761667
13.91570365,0.8210372925,8.92283535,-3.22492671,9.523195115,13.328405347060588
13.91820969,1.096511006,8.781659126,-2.949453115,9.328405388,13.322711453765264
13.92071568,1.369292736,8.611469269,-2.791526794,9.155598692,13.316379548299812
13.92322167,1.639980793,8.470293045,-2.731706142,9.049730367,13.309390886656832
13.92572766,1.984846354,8.592327118,-2.765205622,9.241972867,13.302047553062465
13.92823365,2.379662037,8.95154953,-2.868097067,9.696340092,13.294682036269284
13.93073969,2.683849812,9.339486122,-2.932703257,10.15035956,13.287400859444297
13.93324568,2.805883646,9.55005455,-2.91116786,10.37070023,13.280011984955918
13.93575167,2.851347208,9.57158947,-2.954238653,10.41503874,13.272389426579565
13.93825766,2.858525753,9.562018394,-3.155534744,10.46712782,13.26459811373601
13.94076365,2.875275612,9.578767776,-3.349353552,10.5469508,13.25667428482747
13.94326969,2.908775091,9.569196701,-3.332603693,10.54214141,13.248592685660007
13.94577568,2.91116786,9.516554832,-3.085843801,10.41931601,13.240247162273882
13.94828167,2.94227457,9.52134037,-2.925524712,10.38612521,13.231711492591858
13.95078766,2.939881802,9.545269012,-2.884846687,10.39602837,13.223040597013505
13.95329365,2.829811811,9.506983757,-2.810669184,10.30972533,13.214130840287181
13.95579969,2.674278498,9.404091835,-2.767598391,10.16111754,13.204968673965421
13.95830568,2.492124796,9.272486687,-2.877668381,10.02350591,13.195698530978131
13.96081167,2.312663078,9.145368576,-3.076272726,9.922178732,13.18644829974907
13.96331766,2.080559254,9.00179863,-3.061915636,9.733264239,13.177254322455713
13.96582365,1.860120535,8.889336586,-3.023630619,9.571974481,13.16822107913914
13.96832969,1.754836321,8.853444099,-2.951845884,9.496121159,13.159489200283927
13.97083568,1.704586983,8.918049812,-2.956631422,9.548764245,13.15123183728433
13.97334167,1.711765528,9.028120041,-2.980559587,9.660270604,13.143530825583925
13.97584766,1.72372961,9.171689034,-3.037987471,9.81430035,13.13653723014322
13.97835365,1.752443433,9.327521324,-3.227319479,10.0244353,13.130468595883418
13.98085969,1.764407635,9.430413246,-3.356531858,10.16425769,13.125440098019615
13.98336568,1.752443433,9.506983757,-3.349353552,10.23093189,13.12149846740853
13.98587167,1.730908036,9.49262619,-3.169891834,10.15648605,13.118530781173973
13.98837766,1.695015788,9.490233421,-2.990130901,10.09348759,13.116525936033359
13.9908837,1.601695657,9.485447884,-2.805883646,10.02058549,13.11536557120887
13.99338969,1.43659091,9.377771378,-2.444268227,9.796980995,13.114755794335473
13.99589568,1.280758262,9.121439934,-1.898405671,9.404517653,13.114380620225328
13.99840167,1.20179522,8.896514893,-1.620838284,9.122467086,13.114143018762343
