Time (s),Acceleration x (m/s^2),Acceleration y (m/s^2),Acceleration z (m/s^2),Absolute acceleration (m/s^2),magnitude
8.96765403,9.12861824,-0.6535396576,-2.035095692,9.375521294,
8.970160071,9.05922699,-0.7683951855,-1.994417667,9.307938904,
8.972666113,8.992227554,-0.8428717852,-1.955833435,9.240988782,
8.975172155,8.997013092,-0.9242277741,-1.958226204,9.253923029,
8.977678196,9.004191399,-1.000798106,-1.955833435,9.268351742,
8.980184238,9.008976936,-1.084546804,-1.98963201,9.28959325,
8.982689945,9.025727272,-1.134796143,-2.025524378,9.319563513,
8.985195934,9.054440498,-1.173081279,-2.039881229,9.355219284,
8.987701976,9.03051281,-1.189831018,-2.013560295,9.328466354,
8.990208018,9.023334503,-1.204187989,-2.008774519,9.322328536,
8.992714059,9.018548965,-1.206580877,-2.042274237,9.325285353,
8.995220101,8.975478172,-1.223330617,-2.082952023,9.294860695,
8.997726143,8.870193481,-1.244866014,-2.049452543,9.188595079,
9.000232184,8.793622971,-1.28315115,-2.066202402,9.123786176,
9.002738226,8.731410027,-1.311864972,-2.073380709,9.06958755,
9.005244215,8.707481384,-1.307079315,-2.037488461,9.037701457,
9.007750257,8.690432549,-1.326221943,-1.994417667,9.014443097,
9.010256299,8.71705246,-1.309472203,-2.00638175,9.040314639,
9.01276234,8.755337715,-1.278365493,-2.003988981,9.07227252,
9.015268382,8.827122688,-1.199402332,-2.00638175,9.131387005,
9.017774424,8.898907661,-1.094118118,-2.018345833,9.190286825,
9.020280465,8.989834785,-0.9912267923,-2.128415823,9.291383855,
9.022786455,9.111868858,-0.8258228898,-2.224128723,9.415672367,
9.025292497,9.270093918,-0.6487540603,-2.27677083,9.567612476,
9.027798538,9.308379173,-0.4549354017,-2.228914261,9.582324762,
9.03030458,9.310771942,-0.2703889608,-2.07098794,9.542147316,
9.032810622,9.29402256,-0.1052841991,-1.97527504,9.502191936,
9.035316663,9.341878891,0.1052841991,-1.972882271,9.548510378,
9.037822705,9.396913528,0.3520440459,-2.032702923,9.620696443,
9.040328747,9.377771378,0.579362154,-2.056631088,9.618107296,
9.042834736,9.291629791,0.8018946648,-2.00638175,9.539548572,
9.045340778,9.37298584,1.084546804,-1.898405671,9.624606455,
9.04784682,9.569196701,1.393221021,-1.819442511,9.839764294,
9.050352861,9.798908234,1.66151619,-1.62801671,10.07123016,
9.052858903,10.03848934,1.893620014,-1.386042476,10.30913084,
9.055364945,10.14855862,2.13559413,-1.113260746,10.43040525,
9.057870986,10.27298546,2.329412937,-0.9481559992,10.57636018,
9.060376976,10.2969141,2.525923491,-0.8234301209,10.63413215,
9.062883018,10.34477043,2.791526794,-0.8090731502,10.74530114,
9.065389059,10.32802105,3.081058264,-0.8931210637,10.81474013,
9.067895101,10.32084274,3.425923824,-1.113260746,10.9314271,
9.070401143,10.10070229,3.797110319,-1.443769336,10.88699698,
9.072907184,9.779765129,4.213760853,-1.845763564,10.80770233,
9.075413226,9.349057198,4.685146809,-2.324627161,10.71257964,
9.077919268,8.848658562,5.147260666,-2.805883646,10.61442574,
9.080425257,8.087141991,5.671587944,-2.822633505,10.27307331,
9.082931299,7.287640572,6.253343105,-2.669492722,9.966955226,
9.08543734,6.401698112,6.969096184,-2.207378864,9.71712724,
9.087943382,5.420341492,7.740182877,-1.529910922,9.572416637,
9.090449424,4.220939159,8.405686378,-0.8476574421,9.444067663,
9.092955465,3.002095222,9.071190834,-0.2994019389,9.559744787,
9.095461507,1.874477386,9.751050949,0.1698904037,9.931038356,
9.097967549,0.6990033388,10.30648518,0.5386841893,10.34419755,
9.100473538,-0.4070789516,10.7614212,0.8452646136,10.80223921,
9.10297958,-1.539482236,11.06560802,1.2352947,11.24026866,
9.105485622,-2.75084877,11.18046379,1.855334878,11.66242715,
9.107991663,-3.928715706,11.13500023,2.717349291,12.11639486,
9.110497705,-5.077868938,10.86431217,3.852145433,12.59591427,
9.113003747,-6.109773636,10.45274639,4.979763031,13.09149651,
9.115509788,-7.03400135,9.954740524,5.892026424,13.53846407,
9.118015778,-7.843074322,9.317950249,6.614958286,13.85985876,
9.12052182,-8.621041298,8.577970505,7.101000309,14.08290227,
9.123027861,-9.305986404,7.795217991,7.225427151,14.1270522,
9.125533903,-9.705587387,7.067500591,6.997809887,13.8966663,
9.128039945,-9.894919395,6.382555485,6.533602238,13.46604629,
9.130545986,-9.880562782,5.762515068,5.903990746,12.87203199,
9.133052028,-9.796515465,5.199902534,5.348556995,12.31331651,
9.13555807,-9.712766647,4.754538536,4.963013172,11.89852816,
9.138064059,-9.669695854,4.503292084,4.706682205,11.65913869,
9.140570101,-9.633803368,4.469792843,4.431507587,11.50771371,
9.143076143,-9.605089188,4.675575256,3.990929127,11.4037826,
9.145582184,-9.514162064,5.132903576,3.3852458,11.32810081,
9.148088226,-9.404091835,5.731408596,3.00688076,11.41609914,
9.150594268,-9.370592117,6.430411816,3.215355396,11.81087224,
9.153100309,-9.490233421,7.165606499,4.09860611,12.57811667,
9.155606299,-9.746265411,7.914859295,5.384449005,13.6611485,
9.15811234,-10.15334511,8.649754524,6.567101955,14.86726264,
9.160618382,-10.63460159,9.29402256,7.208677292,15.85681666,
9.163124424,-11.09910774,9.803693771,7.089035988,16.41819221,
9.165630465,-11.54447174,10.09591675,6.219843388,16.54958654,
9.168136507,-11.67607689,10.17009449,4.821836948,16.21763562,
9.170642549,-11.55165005,9.969097137,3.387638569,15.63008674,
9.17314859,-11.30010509,9.533304214,2.26241374,14.9564294,
9.175654632,-10.8619194,8.932407379,1.527518153,14.14575931,
9.178160622,-10.23230743,8.264510155,1.132403374,13.20168856,
9.180666663,-9.401699066,7.567600727,0.9194421172,12.10396216,
9.183172705,-8.475078583,6.921239376,0.8668000102,10.97642263,
9.185678747,-7.395317554,6.351448536,0.789930582,9.780368631,
9.188184788,-6.246164322,5.805585861,0.6678966284,8.553682355,
9.19069083,-5.152046204,5.319543839,0.6583253145,7.434683514,
9.193196872,-3.981357813,4.936692238,0.7109674215,6.381819095,
9.195702913,-2.580958366,4.730610371,0.6774678826,5.43129665,
9.198208903,-0.950548768,4.953442097,0.3520440459,5.056092026,
9.200714945,0.8330013752,5.968596935,-0.555433929,6.051987072,
9.203220986,2.662314177,7.086643219,-1.838585138,7.790303216,
9.205727028,4.457828522,8.156833649,-3.684647799,9.999139948,
9.20823307,6.160022736,9.05922699,-5.135296345,12.0990389,
9.210739111,7.814360619,10.00498962,-5.324329376,13.76635509,
9.213245153,9.332307816,11.19242764,-4.421936035,15.22878603,
9.215751195,10.61545849,12.69841099,-2.944667339,16.81096863,
9.218257184,11.40060329,14.58485222,-0.9936196208,18.53858003,
9.220763226,11.56361485,16.78983879,1.752443433,20.4618409,
9.223269268,11.05125141,19.26760674,5.640480995,22.91693376,
9.225775309,9.897313118,21.829422,10.68485069,26.24207511,
9.228281351,8.053643227,24.11576462,15.85843182,29.96533217,
9.230787393,5.666802406,25.74617386,19.45215225,32.76223962,
9.233293434,2.990130901,26.23939323,19.85653877,33.04131916,
9.235799476,0.1627119333,25.3678093,16.73241043,30.389567,
9.238305518,-2.147558212,23.36411858,11.03210926,25.92684859,
9.240811507,-3.342175007,20.88126564,4.543970108,21.62972614,
9.243317549,-4.52482748,18.43221283,0.0143569354,18.97948207,
9.24582359,-6.143272877,16.38515282,-2.21216464,17.63821722,
9.248329632,-8.161619186,14.83131313,-2.413161755,17.09980195,
9.250835674,-10.22034359,13.76860046,-1.256830096,17.19329531,
9.253341715,-12.26501083,13.15543938,0.8114659786,18.00429263,
9.255847757,-13.57687569,12.82044506,2.868097067,18.8923621,
9.258353799,-13.96481228,12.6433754,4.443471432,19.35498287,
9.260859788,-13.17697525,12.52104282,5.247759342,18.91951818,
9.26336583,-11.30967617,12.29372501,5.358128071,17.54291841,
9.265871872,-8.298009872,11.78614712,4.821836948,15.19935338,
9.268377913,-4.891228676,11.01296616,3.84257412,12.64811912,
9.270883955,-1.706979871,9.99302578,2.48733902,10.43844816,
9.273389997,1.07497561,8.817551613,0.7827520967,8.917257978,
9.275896038,3.428316593,7.656434059,-0.9936196208,8.447580548,
9.27840208,5.370092392,6.69152832,-2.552244425,8.95144654,
9.28090807,7.024429798,5.925526142,-3.583850145,9.863997968,
9.283414111,8.434400558,5.391627789,-3.943072557,10.75902338,
9.285920153,9.719944954,5.106582642,-3.684647799,11.58150014,
9.288426195,10.84038353,5.065904617,-2.944667339,12.32267708,
9.290932236,11.83639622,5.278865814,-2.331805706,13.16829592,
9.293438278,12.59043407,5.626124382,-2.55942297,14.02579594,
9.29594432,13.30648708,6.047560215,-3.84257412,15.11294012,
9.298450361,14.01745415,6.408876419,-5.899205208,16.50343418,
9.300956403,14.72363567,6.636493683,-8.168797493,18.09855653,
9.303462445,15.40349674,6.782455921,-9.940383911,19.54688345,
9.305968434,16.05254936,6.995417118,-10.53888798,20.43742551,
9.308474476,16.60080528,7.328318596,-9.724730492,20.58789384,
9.310980518,17.07458496,7.792825222,-7.816753387,20.33153241,
9.313486559,17.34527206,8.329116821,-5.518447399,20.01714045,
9.315992601,17.31416512,8.839086533,-3.567100286,19.76446227,
9.318498643,16.9669075,9.226723671,-2.444268227,19.46748127,
9.321004684,16.28704643,9.418449402,-2.142772675,18.93585344,
9.323510726,15.40110397,9.420842171,-2.39162612,18.21170355,
9.326016715,14.30698586,9.296415329,-2.825026274,17.29433305,
9.328522757,13.03340626,9.152546883,-3.232105255,16.25070145,
9.331028799,11.66172028,9.085547447,-3.476173162,15.1863976,
9.33353484,10.277771,9.114261627,-3.524029493,14.181718,
9.336040882,8.97308445,9.195617676,-3.418745279,13.29524156,
9.338546924,7.764111042,9.341878891,-3.222533941,12.56729273,
9.341052965,6.636493683,9.538089752,-2.951845884,11.98881139,
9.343559007,5.640480995,9.741479874,-2.600100994,11.55300745,
9.346065049,4.737788677,9.937990189,-2.202593327,11.22772051,
9.348571038,3.921537161,10.10548782,-1.919941068,11.00842911,
9.35107708,3.162713289,10.2275219,-1.831406593,10.86089359,
9.353583122,2.45383954,10.31605625,-1.917548299,10.77586825,
9.356089163,1.797907114,10.35434151,-2.073380709,10.71185164,
9.358595205,1.2352947,10.38066292,-2.169093609,10.67656699,
9.361101247,0.8330013752,10.40249729,-2.173879385,10.65981204,
9.363607288,0.6224330068,10.41924667,-2.121237278,10.6511864,
9.36611333,0.5913262963,10.45035362,-2.082952023,10.67231216,
9.368619372,0.7181459069,10.44556808,-2.133201361,10.68532518,
9.371125413,0.9146564603,10.44556808,-2.260020971,10.72633133,
9.373631403,1.103689432,10.40728283,-2.40598321,10.73864151,
9.376137445,1.261615753,10.31605625,-2.523231506,10.69482997,
9.378643486,1.381256819,10.17966557,-2.547458887,10.58409222,
9.381149528,1.4054842,9.997811317,-2.484946251,10.39743117,
9.38365557,1.388435364,9.763015747,-2.348555326,10.13705783,
9.386161611,1.366899967,9.516554832,-2.200200319,9.862763956,
9.388667653,1.400399446,9.320343018,-2.059023857,9.647253071,
9.391173695,1.508375525,9.1860466,-1.927119493,9.506441943,
9.393679736,1.704586983,9.126225471,-1.785943031,9.454268911,
9.396185726,1.982453585,9.145368576,-1.647159338,9.501632622,
9.398691768,2.32701993,9.202795982,-1.520339727,9.613423351,
9.401197809,2.731706142,9.286844254,-1.374078393,9.777309756,
9.403703851,3.179463148,9.339486122,-1.175474167,9.935629142,
9.406209893,3.653541088,9.351449966,-0.9194421172,10.08183281,
9.408715934,4.179962158,9.317950249,-0.6487540603,10.23314039,
9.411221976,4.756931305,9.26530838,-0.423828721,10.42372129,
9.413728018,5.346164227,9.17886734,-0.3376871049,10.62765779,
9.416234059,5.939883232,9.104690552,-0.385543555,10.87778685,
9.418740101,6.502495766,9.023334503,-0.5003990531,11.13343684,
9.42124609,7.053143978,8.989834785,-0.6415755749,11.44445668,
9.423752132,7.534101009,9.028120041,-0.737288475,11.78190238,
9.426258174,7.926823139,9.114261627,-0.7564310431,12.10274671,
9.428764215,8.216653824,9.198010445,-0.742074132,12.35586785,
9.431270257,8.376973152,9.317950249,-0.7348956466,12.55141218,
9.433776299,8.405686378,9.428020477,-0.7755736113,12.65482706,
9.43628234,8.305188179,9.55005455,-0.8572286963,12.68520925,
9.438788382,8.060821533,9.664909363,-0.9864411354,12.62380224,
9.441294424,7.670791149,9.741479874,-1.115653515,12.44918269,
9.443800413,7.17757082,9.779765129,-1.278365493,12.19817803,
9.446306455,6.574280262,9.794121742,-1.450947881,11.88491613,
9.448812497,5.884549141,9.794121742,-1.577767372,11.53438725,
9.451318538,5.15922451,9.767801285,-1.654337764,11.16979735,
9.45382458,4.419543266,9.715159416,-1.673480392,10.80357449,
9.456330622,3.679862022,9.672088623,-1.680658817,10.48404964,
9.458836663,2.968595505,9.640981674,-1.673480392,10.22553781,
9.461342705,2.293520451,9.605089188,-1.62801671,10.0084171,
9.463848747,1.690230131,9.578767776,-1.568196177,9.852355519,
9.466354788,1.180259824,9.530911446,-1.525125384,9.72405747,
9.468860778,0.7875377536,9.497411728,-1.5011971,9.647519784,
9.47136682,0.4860421121,9.473484039,-1.479661703,9.60065287,
9.473872861,0.3281157911,9.451948166,-1.424626827,9.56433718,
9.476378903,0.2970091105,9.475876808,-1.335793257,9.574173558,
9.478884945,0.3975076675,9.490233421,-1.26640141,9.582604827,
9.481390986,0.6176473498,9.516554832,-1.194616675,9.61110884,
9.483897028,1.005583763,9.566803932,-1.127617717,9.6853734,
9.48640307,1.505982757,9.62183857,-1.053440213,9.7957898,
9.488909111,2.027917147,9.660123825,-0.9170492887,9.913194221,
9.491415153,2.475374937,9.741479874,-0.7013961077,10.07550831,
9.493921195,2.870489836,9.80608654,-0.4860421121,10.22913887,
9.496427184,3.19382,9.880562782,-0.2488535494,10.38691172,
9.498933226,3.478565931,9.916455269,-0.007178467698,10.50887994,
9.501439268,3.653541088,9.9140625,0.2249253243,10.56823491,
9.503945309,3.775574923,9.851848602,0.3687937856,10.55698327,
9.506451351,3.866502285,9.751050949,0.4094717801,10.49764267,
9.508957393,3.93828702,9.595518112,0.3352942765,10.37769217,
9.511463434,3.981357813,9.444769859,0.2464607358,10.25259141,
9.513969476,3.981357813,9.296415329,0.1435693651,10.11410699,
9.516475518,3.90478754,9.198010445,0.0765703246,9.992828673,
9.518981507,3.80907464,9.109476089,0.01914258115,9.87380224,
9.521487549,3.706183195,9.018548965,-0.05024927482,9.750515079,
9.52399359,3.605385542,8.941978455,-0.1172483116,9.642174586,
9.526499632,3.421138287,8.886942863,-0.0933200866,9.523163827,
9.529005674,3.174677372,8.891729355,-0.05264209956,9.441620546,
9.531511715,2.970988512,8.910871506,-0.05742774159,9.393279602,
9.534017757,2.803490877,8.918049812,-0.0933200866,9.348790413,
9.536523799,2.65513587,8.894122124,-0.1387837082,9.2830176,
9.53902984,2.425125837,8.903693199,-0.1674975902,9.229574386,
9.541535882,2.123630047,8.937192917,-0.09810572863,9.186557927,
9.544041872,1.891227245,8.958727837,-0.05982056633,9.156370648,
9.546547913,1.611266971,8.992227554,0.0239282269,9.135475368,
9.549053955,1.388435364,8.997013092,0.0933200866,9.103993957,
9.551559997,1.134796143,9.042476654,0.2057827413,9.115727775,
9.554066038,0.8258228898,9.097511292,0.3496512175,9.1416055,
9.55657208,0.4214358926,9.183652878,0.4381856322,9.203754399,
9.559078122,0.1004985496,9.260522842,0.4381856322,9.271428688,
9.561584163,-0.1076770201,9.305986404,0.4286143482,9.316473987,
9.564090205,-0.3257229924,9.368199348,0.4525425732,9.38477753,
9.566596247,-0.6415755749,9.418449402,0.5338985324,9.45536123,
9.569102288,-0.9146564603,9.449555397,0.5027918816,9.507023368,
9.571608278,-1.182652593,9.49980545,0.5027918816,9.586332481,
9.57411432,-1.354935765,9.538089752,0.5362913609,9.64876238,
9.576620361,-1.537089467,9.509376526,0.6487540603,9.654624165,
9.579126403,-1.668694735,9.437591553,0.7301099896,9.611749946,
9.581632445,-1.821835399,9.361021042,0.7444669604,9.565669356,
9.584138486,-1.821835399,9.245866776,0.6487540603,9.445952492,
9.586644528,-1.752443433,9.159725189,0.5482555032,9.341959517,
9.58915057,-1.738086581,9.087940216,0.4357928336,9.262910867,
9.591656611,-1.671087503,9.061619759,0.3352942765,9.220515623,
9.594162653,-1.572981834,9.078369141,0.2679961324,9.217531125,
9.596668695,-1.417448282,9.097511292,0.2033899277,9.209518923,
9.599174736,-1.232901812,9.147761345,0.1890329868,9.23240586,
9.601680726,-1.072582722,9.245866776,0.2440679073,9.31107165,
9.604186768,-0.8763712645,9.341878891,0.3017947674,9.387747754,
9.606692809,-0.6559324861,9.418449402,0.385543555,9.449131198,
9.609198851,-0.4166502357,9.514162064,0.4645066857,9.534602438,
9.611704893,-0.1363908947,9.578767776,0.5482555032,9.595414462,
9.614210934,0.1028913707,9.648159981,0.71336025,9.675043178,
9.616716976,0.3496512175,9.719944954,0.9314061999,9.770726861,
9.619223018,0.5913262963,9.77737236,1.127617717,9.859928944,
9.621729059,0.7540382147,9.823135376,1.295115232,9.936794539,
9.624235101,0.8763712645,9.880562782,1.374078393,10.01407204,
9.62674109,0.9672985673,9.918848038,1.381256819,10.06116709,
9.629247132,1.043868899,9.990633011,1.345364571,10.13471342,
9.631753174,1.034297585,10.07916737,1.390828133,10.2271105,
9.634259215,0.9433703423,10.18684387,1.398006678,10.32551008,
9.636765257,0.8548358679,10.33041382,1.371685624,10.45608509,
9.639271299,0.6128616929,10.46471119,1.407876968,10.57676214,
9.64177734,0.3376871049,10.63460159,1.434198022,10.73618683,
9.644283382,-0.01674975827,10.81645584,1.482054472,10.91753099,
9.646789424,-0.371186614,10.98185921,1.479661703,11.08730851,
9.649295465,-0.7061817646,11.10867882,1.398006678,11.21854984,
9.651801507,-1.077368379,11.25942707,1.292722464,11.38448734,
9.654307497,-1.422233939,11.41496086,1.240080357,11.5698695,
9.656813538,-1.704586983,11.55404282,1.275972724,11.74860113,
9.65931958,-1.934298038,11.66889858,1.393221021,11.90990209,
9.661825622,-2.216950178,11.77896881,1.582553029,12.08980763,
9.664331663,-2.492124796,11.87707424,1.75722909,12.26227681,
9.666837705,-2.729313374,11.93928814,1.943869352,12.40057986,
9.669343747,-2.956631422,11.9727869,2.157129526,12.51968464,
9.671849788,-3.16032052,11.9727869,2.504088879,12.63351547,
9.67435583,-3.332603693,11.92732334,2.899203777,12.71898864,
9.676861872,-3.435495138,11.81007481,3.258426189,12.72390801,
9.679367913,-3.509672642,11.66411304,3.509672642,12.67624302,
9.681873955,-3.562314749,11.43410301,3.569493294,12.49680281,
9.684379997,-3.62452817,11.17567825,3.44985199,12.24477307,
9.686885986,-3.756432533,10.92413235,3.205784082,11.98851553,
9.689392028,-3.931108475,10.73031425,2.966202736,11.80642268,
9.69189807,-4.1129632,10.62742233,2.758027315,11.72455911,
9.694404111,-4.342973232,10.62024403,2.549851656,11.75383951,
9.696910153,-4.591826439,10.72552872,2.34137702,11.89974297,
9.699416195,-4.833800793,10.89063358,2.164308071,12.11015109,
9.701922236,-5.077868938,11.15653515,2.035095692,12.42556413,
9.704428278,-5.321936607,11.43410301,1.992024899,12.76831563,
9.70693432,-5.618945599,11.79571819,2.152343988,13.241756,
9.709440361,-5.88694191,12.19322586,2.382055044,13.74790996,
9.711946403,-6.081059456,12.56411362,2.525923491,14.18508106,
9.714452393,-6.238986015,12.88744354,2.50169611,14.53511716,
9.716958434,-6.413661957,13.20120239,2.257628202,14.84936663,
9.719464476,-6.538387775,13.53859043,1.800299883,15.14216052,
9.721970518,-6.667600155,13.94327641,1.297508121,15.50984771,
9.724476559,-6.794419765,14.39342594,0.8811569214,15.94086848,
9.726982601,-6.935596466,14.90100384,0.7013961077,16.45096867,
9.729488643,-7.139285564,15.4540453,0.8572286963,17.04499209,
9.731994684,-7.416852951,16.02862167,1.371685624,17.71462509,
9.734500726,-7.759325504,16.5649128,2.183450699,18.42202283,
9.737006768,-8.144868851,17.03151321,3.198605776,19.14790876,
9.739512809,-8.566005707,17.40748596,4.369294167,19.88687388,
9.742018851,-8.965906143,17.68774414,5.652445316,20.62023045,
9.744524893,-9.349057198,17.87199211,7.009773731,21.3529834,
9.747030882,-9.700801849,17.94377708,8.379365921,22.05217599,
9.749536924,-9.957133293,17.9078846,9.554840088,22.60822424,
9.752042965,-10.10070229,17.76670837,10.19880867,22.84066136,
9.754549007,-10.16291618,17.56541252,10.26341438,22.7412897,
9.757055049,-10.10070229,17.34527206,9.902098656,22.38155954,
9.75956109,-9.887741089,17.23998833,8.968298912,21.80401355,
9.762067132,-9.490233421,17.30220222,7.278069019,21.03333119,
9.764573174,-8.932407379,17.56541252,5.429912567,20.4405374,
9.767079215,-8.28126049,17.9198494,4.319045067,20.20778137,
9.769585257,-7.694719315,18.27428627,3.59102869,20.15077495,
9.772091299,-7.072286606,18.61167336,2.516052961,20.06843655,
9.77459734,-6.384948254,18.937397,1.120439172,20.01619228,
9.777103382,-5.815157413,19.26999855,-0.4429712892,20.13318463,
9.779609424,-5.271687508,19.58854294,-2.55942297,20.44632851,
9.782115413,-4.83858633,19.77518272,-4.689932346,20.8917504,
9.784621455,-4.517649174,19.72493362,-4.951049328,20.83254785,
9.787127497,-4.261617184,19.53590202,-3.373281717,20.27786671,
9.789633538,-3.952643871,19.2125721,-2.015953064,19.71827546,
9.79213958,-3.600599766,18.90629005,-2.336591244,19.38741295,
9.794645622,-3.22492671,18.70738602,-3.902394533,19.38027675,
9.797151663,-2.683849812,18.57099533,-4.488935471,19.29340455,
9.799657705,-1.800299883,18.49442482,-3.344567776,18.88043863,
9.802163747,-0.6032904387,18.49921036,-2.240878344,18.64420229,
9.804669788,0.7181459069,18.51835442,-2.068595171,18.6473663,
9.80717583,1.972882271,18.37957001,-2.568994284,18.66281302,
9.809681872,3.126821041,17.98684692,-3.358924866,18.56302907,
9.812187913,4.424329281,17.37398529,-3.861716747,18.33965405,
9.814693955,5.700301647,16.68455315,-4.167997837,18.11739381,
9.817199945,6.99063158,15.91825294,-4.520041943,17.96358778,
9.819705986,8.436793327,15.13789368,-4.951049328,18.0235456,
9.822212028,9.969097137,14.32882023,-5.350949764,18.2573451,
9.82471807,11.49153042,13.43330669,-5.851049423,18.62105742,
9.827224111,12.89462185,12.54018497,-6.531209469,19.13594024,
9.829730153,14.18973732,11.70957661,-7.347461224,19.81030075,
9.832236195,15.43729496,10.99143124,-7.960322857,20.55452204,
9.834742236,16.59123421,10.32084274,-8.503792763,21.30970058,
9.837248278,17.59891129,9.719944954,-8.779266357,21.93796996,
9.83975432,18.554245,9.111868858,-8.396115303,22.31100432,
9.842260361,19.39711761,8.518149376,-7.196712971,22.37408586,
9.844766403,20.13440704,7.867002487,-5.568696499,22.32251007,
9.847272445,20.8381958,7.122535706,-4.203890324,22.41949181,
9.849778486,21.56112671,6.253343105,-3.734897137,22.75820603,
9.852284476,22.23889351,5.154438972,-4.108177185,23.19512331,
9.854790518,22.91157532,3.833002806,-4.725824833,23.70581394,
9.857296559,23.46461678,2.494517565,-5.063511848,24.13400113,
9.859802601,23.81636238,1.541875124,-4.876871586,24.35940008,
9.862308643,23.80439758,1.244866014,-4.295116425,24.2207981,
9.864814684,23.37129784,1.539482236,-3.605385542,23.69781368,
9.867320726,22.59542465,2.188236237,-2.956631422,22.89286488,
9.869826768,21.64756775,2.992523909,-2.489732027,21.99479835,
9.872332809,20.64437675,3.799503326,-2.248056889,21.11114106,
9.874838851,19.76800537,4.543970108,-2.209771633,20.4035485,
9.877344893,19.03071594,5.178367138,-2.317448616,19.8583535,
9.879850934,18.44417572,5.693123341,-2.499303341,19.46396128,
9.882356976,17.96770477,6.049952984,-2.729313374,19.15435975,
9.884863018,17.51516342,6.262914181,-2.963809967,18.83584915,
9.887369059,17.06022644,6.301199436,-3.212962627,18.46833965,
9.889875101,16.58884048,6.217450619,-3.454637766,18.04940007,
9.892381143,16.07169151,6.011667728,-3.689433336,17.55139126,
9.894887132,15.53779411,5.697908878,-3.95503664,17.01562595,
9.897393174,14.99910927,5.326722145,-4.228117466,16.46888657,
9.899899215,14.48196125,4.898406982,-4.481756687,15.93134444,
9.902405257,13.9863472,4.450650215,-4.742574692,15.42459756,
9.904911299,13.47877026,3.993321896,-4.963013172,14.90823152,
9.90741734,12.9759779,3.497708559,-5.125725269,14.38342891,
9.909923382,12.50907898,3.004487991,-5.26690197,13.90123237,
9.912429424,12.02782249,2.48733902,-5.341378212,13.39349434,
9.914935465,11.53490067,1.980060697,-5.314758301,12.85384104,
9.917441507,11.0368948,1.494018674,-5.161617756,12.27548111,
9.919947549,10.54845905,1.029511929,-4.979763031,11.71016324,
9.92245359,10.08873844,0.6008976102,-4.829015255,11.20103163,
9.924959632,9.693623543,0.2368894368,-4.737788677,10.79208486,
9.927465674,9.34427166,-0.08135596663,-4.721039295,10.46949109,
9.929971715,9.066405296,-0.371186614,-4.704289436,10.22095023,
9.932477757,8.882157326,-0.5626124144,-4.66839695,10.05003391,
9.934983747,8.776873589,-0.6942176819,-4.615755081,9.940857264,
9.937489788,8.798408508,-0.7277171612,-4.570291042,9.941283859,
9.93999583,8.896514893,-0.684646368,-4.517649174,10.00129351,
9.942501872,9.066405296,-0.5506483316,-4.438685894,10.10964149,
9.945007913,9.253045082,-0.3783650696,-4.321437836,10.21943386,
9.947513955,9.511769295,-0.1746760458,-4.223331928,10.40868865,
9.950019997,9.746265411,0.0382851623,-4.16081953,10.59733808,
9.952526038,9.985847473,0.2584248483,-4.16081953,10.8211068,
9.95503208,10.20120144,0.4453641176,-4.203890324,11.04244329,
9.957538122,10.40010452,0.5697908998,-4.254438877,11.25109265,
9.960044163,10.56520939,0.6870391965,-4.278367043,11.41928618,
9.962550205,10.69920731,0.789930582,-4.275974274,11.5490685,
9.965056247,10.76381397,0.818644464,-4.256831646,11.60389959,
9.967562288,10.79970551,0.7923234105,-4.247260094,11.63188006,
9.97006833,10.8116703,0.766002357,-4.26879549,11.64910251,
9.972574372,10.8116703,0.6918248534,-4.266402721,11.64358315,
9.975080413,10.8116703,0.608076036,-4.235296249,11.62754082,
9.977586455,10.76859951,0.5243272781,-4.17517662,11.56156366,
9.980092497,10.74706364,0.4190430641,-4.074677944,11.50121621,
9.982598538,10.67767239,0.2922234535,-3.947858334,11.38787371,
9.985104528,10.6226368,0.1770688742,-3.849752426,11.30010441,
9.98761057,10.54367352,0.06939185411,-3.732504129,11.18505492,
9.990116611,10.43599701,-0.04785645381,-3.658326626,11.05873761,
9.992622653,10.33041382,-0.1483550072,-3.62452817,10.94882018,
9.995128695,10.24427223,-0.2656033039,-3.5766716,10.85395036,
9.997634736,10.1270237,-0.4118646085,-3.473780155,10.71416772,
10.00014078,9.990633011,-0.5913262963,-3.334996462,10.54915239,
10.00264682,9.854242325,-0.7444669604,-3.205784082,10.38929133,
10.00515286,9.731908798,-0.9122636318,-3.102892876,10.25525319,
10.0076589,9.62183857,-1.077368379,-3.021237612,10.14240488,
10.01016495,9.49980545,-1.220937729,-2.91116786,10.01058894,
10.01267099,9.401699066,-1.364507079,-2.851347208,9.918871196,
10.01517703,9.346664429,-1.472483277,-2.796312332,9.866494089,
10.01768307,9.322735786,-1.58016026,-2.746062994,9.846378571,
10.02018911,9.31555748,-1.66151619,-2.722134829,9.846332578,
10.02269515,9.272486687,-1.70937264,-2.65513587,9.795443362,
10.0252012,9.190832138,-1.74047935,-2.51844573,9.687271683,
10.02770718,9.109476089,-1.764407635,-2.39162612,9.582043854,
10.03021323,9.104690552,-1.754836321,-2.291127682,9.551131169,
10.03271927,9.047262192,-1.716551185,-2.173879385,9.461778518,
10.03522531,8.994620323,-1.685444474,-2.056631088,9.379426916,
10.03773135,8.968298912,-1.654337764,-1.939083695,9.3234792,
10.04023739,8.961120605,-1.575374603,-1.90079844,9.294972962,
10.04274343,8.953942299,-1.479661703,-1.85294199,9.2626063,
10.04524948,8.963513374,-1.393221021,-1.776371717,9.24343731,
10.04775552,8.994620323,-1.304686546,-1.714158297,9.248985912,
10.05026156,9.121439934,-1.240080357,-1.64476645,9.35113482,
10.0527676,9.305986404,-1.151545882,-1.651944876,9.521363492,
10.05527364,9.497411728,-1.063011408,-1.699801445,9.706706328,
10.05777968,9.65055275,-0.9936196208,-1.764407635,9.860709033,
10.06028573,9.734301567,-0.9385846853,-1.759621978,9.936490211,
10.06279177,9.736694336,-0.9314061999,-1.632802367,9.916490189,
10.06529781,9.707980156,-0.9625129104,-1.479661703,9.867153012,
10.06780385,9.662516594,-1.02711916,-1.345364571,9.809648644,
10.07030989,9.662516594,-1.07497561,-1.287936807,9.807067896,
10.07281593,9.669695854,-1.094118118,-1.381256819,9.828935994,
10.07532198,9.717552185,-1.053440213,-1.354935765,9.867948504,
10.07782802,9.818050385,-0.9098708034,-1.256830096,9.939899402,
10.08033401,9.899705887,-0.7037889361,-1.096511006,9.985080465,
10.08284005,10.03131104,-0.4860421121,-0.9170492887,10.0848608,
10.08534609,10.0265255,-0.3400799036,-0.7205387354,10.05813322,
10.08785213,10.00498962,-0.1698904037,-0.5291129351,10.0204112,
10.09035817,9.995418549,0.05503492057,-0.3735794425,10.0025488,
10.09286422,10.02413273,0.2703889608,-0.3520440459,10.03395646,
10.09537026,9.933204651,0.5003990531,-0.3903291821,9.953457224,
10.0978763,9.904491425,0.742074132,-0.5458626747,9.947240344,
10.10038234,9.868598938,1.041476011,-0.7444669604,9.951288778,
10.10288838,9.786943436,1.366899967,-0.9194421172,9.924618438,
10.10539442,9.681659698,1.685444474,-1.242473125,9.905503372,
10.10790046,9.190832138,2.047059774,-1.472483277,9.530480372,
10.11040651,8.690432549,2.533101797,-1.673480392,9.205474416,
10.11291255,8.209475517,3.014059305,-1.886441588,8.946435247,
10.11541859,7.438388348,3.502494097,-1.977667928,8.456255468,
10.11792463,6.550352097,3.993321896,-1.929512382,7.910546781,
10.12043067,5.781657696,4.639683247,-1.699801445,7.605494809,
10.12293672,4.934299469,5.309972763,-1.192223907,7.346054712,
10.12544276,4.041178226,5.923133373,-0.5673980713,7.192813843,
10.12794875,3.133999348,6.559923172,0.2129612118,7.273231497,
10.13045479,2.200200319,7.22781992,1.137188911,7.640383554,
10.13296088,1.127617717,7.859824181,2.164308071,8.229981002,
10.13546687,0.007178467698,8.436793327,3.07148695,8.978505737,
10.13797291,-0.9912267923,8.913264275,3.696611881,9.700193296,
10.14047896,-1.838585138,9.301200867,3.952643871,10.27210429,
10.142985,-2.597707987,9.583553314,3.998107433,10.70408539,
10.14549104,-3.251247883,9.753444672,3.995714664,11.03023261,
10.14799708,-3.76361084,9.870991707,4.029214382,11.30645003,
10.15050312,-4.307080746,9.8638134,4.151247978,11.53597066,
10.15300916,-4.807479858,9.74865818,4.302295208,11.69007883,
10.1555152,-5.350949764,9.518947601,4.345366001,11.75266916,
10.15802125,-5.829514027,9.253045082,4.438685894,11.80271196,
10.16052729,-6.267699718,8.961120605,4.316651821,11.75666727,
10.16303333,-6.689135551,8.680861473,4.220939159,11.74385872,
10.16553937,-7.029215813,8.372187614,4.194318771,11.70878774,
10.16804541,-7.234998226,8.060821533,4.316651821,11.65999683,
10.17055146,-7.30439043,7.804789066,4.541577339,11.61442106,
10.1730575,-7.325925827,7.622934818,4.673182487,11.55928021,
10.17556354,-7.357032299,7.486244678,4.579862595,11.45185247,
10.17806958,-7.371389389,7.371389389,4.230510235,11.25042132,
10.18057562,-7.380960464,7.280461788,3.701397419,11.00836246,
10.18308166,-7.378567696,7.21346283,3.059522867,10.76280574,
10.18558771,-7.371389389,7.139285564,2.528316259,10.56878247,
10.1880937,-7.438388348,7.146463871,2.420340061,10.59526371,
10.19059974,-7.744968891,7.251748085,2.918346405,11.00405103,
10.19310578,-8.365009308,7.479066372,3.833002806,11.85755983,
10.19561182,-9.26530838,7.831110477,4.788337231,13.04225456,
10.19811786,-10.34477043,8.276473999,5.429912567,14.31775987,
10.2006239,-11.33599758,8.729017258,5.456233978,15.31244829,
10.20312994,-12.11426258,9.119047165,4.943870544,15.94848692,
10.20563599,-12.63141155,9.353842735,4.105784416,16.24513458,
10.20814203,-12.99272823,9.289237022,3.232105255,16.29562566,
10.21064807,-12.9831562,8.92283535,2.43708992,15.94110231,
10.21315411,-12.67208958,8.343473434,1.955833435,15.29773472,
10.21566015,-11.88664532,7.661220074,1.611266971,14.23315886,
10.2181662,-10.78295612,6.945167542,1.369292736,12.89893242,
10.22067224,-9.437591553,6.284449577,1.15393877,11.39710558,
10.22317828,-7.981858253,6.34187746,1.130010486,10.25701685,
10.22568432,-6.258128643,7.136892796,0.9074779749,9.535351549,
10.22819036,-4.156033993,8.082356453,0.3927220106,9.096776075,
10.2306964,-1.876870275,8.961120605,-0.3017947674,9.160535171,
10.23320244,0.2898306549,9.693623543,-0.4190430641,9.707004496,
10.23570849,2.061416626,10.40249729,0.2584248483,10.60792967,
10.23821453,3.227319479,11.28335476,1.3310076,11.81106544,
10.24072057,3.854538202,12.35115242,2.34137702,13.14878235,
10.24322661,4.235296249,13.69173145,3.394817114,14.72840887,
10.24573265,4.472185612,15.31017685,5.197509766,16.77546026,
10.24823864,4.517649174,17.19691658,8.317152023,19.62952143,
10.25074468,4.328616142,19.22453499,12.48275757,23.32678503,
10.25325073,3.847359657,21.21895218,16.89512253,27.39509579,
10.25575677,3.131606579,22.91636086,20.25165367,30.7424142,
10.25826281,2.243271112,23.92673111,20.89083672,31.84254678,
10.26076885,1.228116274,23.86451721,17.69252968,29.73296248,
10.26327489,0.2464607358,22.71985054,11.38624668,25.41454239,
10.26578093,-0.5123631358,20.88605118,3.983750582,21.26875451,
10.26828698,-1.163509965,18.81057739,-2.224128723,18.97731082,
10.27079302,-2.484946251,16.88315773,-5.504090309,17.93072734,
10.27329906,-4.191926003,15.39392567,-5.918347836,17.01681616,
10.2758051,-6.05713129,14.40539074,-4.275974274,16.20148382,
10.27831114,-8.084749222,13.79492188,-1.383649707,16.04922198,
10.28081718,-9.523733139,13.52423382,1.427019596,16.60249313,
10.28332323,-10.38335514,13.48594856,3.708575964,17.41948358,
10.28582927,-10.25145054,13.55773354,4.565505505,17.59966526,
10.28833531,-9.576375008,13.49312687,4.132105827,17.05419976,
10.29084135,-8.053643227,13.15065384,2.530709028,15.62707118,
10.29334739,-5.671587944,12.49711418,0.2632105052,13.72639984,
10.29585343,-2.961417198,11.53011513,-2.013560295,12.07344076,
10.29835948,-0.3975076675,10.27298546,-3.90478754,10.99725458,
10.30086552,1.879263043,8.788837433,-5.216652393,10.39176382,
10.30337156,3.833002806,7.22781992,-5.707480431,9.975400953,
10.3058776,5.458626747,5.841478348,-5.683551788,9.809293358,
10.30838364,6.787241459,4.833800793,-5.817550182,10.16248822,
10.31088968,7.845467091,4.208974838,-6.282056808,10.89637833,
10.31339573,8.678468704,3.866502285,-7.345067978,12.00898341,
10.31590177,9.310771942,3.689433336,-9.008976936,13.47085958,
10.31840781,9.779765129,3.675076485,-10.81406307,15.03642089,
10.32091385,10.23948669,3.823431492,-12.13101292,16.32872287,
10.32341989,10.73509979,4.122534275,-12.38704491,16.90196846,
10.32592593,11.35035419,4.484149456,-11.5396862,16.79590707,
10.32843198,12.16451168,4.781158924,-9.707980156,16.28126849,
10.33093796,13.2083807,5.041976452,-7.35463953,15.93654824,
10.33344401,14.42453289,5.276473045,-5.353342533,16.26550316,
10.33595005,15.70768452,5.542375565,-4.431507587,17.23622752,
10.33845609,16.96451378,5.848656654,-4.445864677,18.48694743,
10.34096213,18.04188347,6.229414463,-4.936692238,19.71512348,
10.34346817,18.93261147,6.727420807,-5.300401211,20.77970694,
10.34597422,19.52393723,7.287640572,-5.334199905,21.51156709,
10.34848026,19.73689842,7.941180229,-5.030012131,21.86111902,
10.3509863,19.58854294,8.719446182,-4.340580463,21.87648041,
10.35349234,19.11685753,9.55005455,-3.454637766,21.646993,
10.35599838,18.32453537,10.35434151,-2.57617259,21.20466104,
10.35850442,17.18255997,11.05603695,-1.850549221,20.51586831,
10.36101047,15.75554085,11.61386395,-1.328614831,19.61846377,
10.36351651,14.0988102,12.03739357,-0.9960124493,18.56521839,
10.36602255,12.30568886,12.32722378,-0.8739784956,17.440019,
10.36852859,10.4718895,12.47079372,-0.9098708034,16.30978328,
10.37103463,8.642576218,12.48275757,-1.01036942,15.21624811,
10.37354067,6.916453838,12.38225937,-1.094118118,14.22514588,
10.37604672,5.370092392,12.18604755,-1.079761267,13.36052139,
10.37855276,4.03399992,11.96321583,-1.01036942,12.66540701,
10.3810588,2.954238653,11.69043446,-0.8883354068,12.09061304,
10.38356484,2.080559254,11.39821053,-0.8282157183,11.61610396,
10.38607088,1.407876968,11.11107159,-0.9744769931,11.24222553,
10.38857692,0.8715856671,10.80927753,-1.328614831,10.92544552,
10.39108296,0.4118646085,10.50060272,-1.814656854,10.66420506,
10.39358901,0.05742774159,10.16770172,-2.343769789,10.4344963,
10.39609505,-0.2703889608,9.823135376,-2.875275612,10.23886266,
10.39860109,-0.5195416212,9.47109127,-3.404388428,10.07776532,
10.40110713,-0.6942176819,9.142974854,-3.866502285,9.951169141,
10.40361317,-0.7588238716,8.858229637,-4.213760853,9.838690284,
10.40611922,-0.7109674215,8.630612373,-4.328616142,9.681418404,
10.40862526,-0.4980062246,8.499007225,-4.187140465,9.487532834,
10.4111313,-0.1339980662,8.453543663,-3.900001764,9.310766333,
10.41363734,0.4142574072,8.513363838,-3.569493294,9.240684791,
10.41614338,1.094118118,8.616254807,-3.256033421,9.275704555,
10.41864942,1.881655931,8.740981102,-2.966202736,9.4203895,
10.42115541,2.731706142,8.846264839,-2.650350094,9.63031545,
10.42366146,3.564707518,8.932407379,-2.264806747,9.880505598,
10.4261675,4.390829563,9.008976936,-1.814656854,10.18499039,
10.42867354,5.116153717,9.078369141,-1.328614831,10.50509555,
10.43117958,5.77208662,9.121439934,-0.8066803217,10.82443456,
10.43368562,6.282056808,9.17886734,-0.332901448,11.12774311,
10.43619166,6.650850773,9.209974289,0.06939185411,11.3605571,
10.43869771,6.945167542,9.2362957,0.4381856322,11.56445057,
10.44120375,7.156035423,9.2362957,0.7564310431,11.70855197,
10.44370979,7.27567625,9.25783062,1.063011408,11.82255835,
10.44621583,7.376174927,9.313164711,1.299900889,11.95126503,
10.44872187,7.445566654,9.406484604,1.424626827,12.08089305,
10.45122791,7.488637447,9.545269012,1.448554993,12.21843537,
10.45373396,7.500601768,9.700801849,1.434198022,12.34591055,
10.45624,7.46949482,9.808479309,1.381256819,12.40594574,
10.45874604,7.337889671,9.952347755,1.347757339,12.43825955,
10.46125208,7.11296463,10.06241703,1.338186026,12.39504918,
10.46375812,6.789634228,10.14616585,1.220937729,12.26925032,
10.46626416,6.368198395,10.20837975,0.9170492887,12.06672894,
10.4687702,5.858228207,10.23948669,0.4836492836,11.80677103,
10.47127625,5.278865814,10.23948669,0.01674975827,11.52014725,
10.47378229,4.725824833,10.22273636,-0.3424727321,11.26743301,
10.47628833,4.307080746,10.15334511,-0.6487540603,11.04817828,
10.47879437,4.053142548,9.99302578,-0.8763712645,10.81926778,
10.48130041,3.679862022,9.818050385,-0.8428717852,10.51883695,
10.48380646,3.265604734,9.676874161,-0.8090731502,10.24503134,
10.4863125,2.817847729,9.518947601,-0.8353942037,9.962354779,
10.48881854,2.346162558,9.377771378,-0.8811569214,9.706879636,
10.49132458,1.886441588,9.243474007,-0.8931210637,9.47618799,
10.49383062,1.458126307,9.114261627,-0.9218349457,9.276080907,
10.49633666,1.070189953,9.05922699,-0.9074779749,9.16724694,
10.49884271,0.6990033388,9.075976372,-0.8377870321,9.141325937,
10.50134875,0.4334000051,9.181260109,-0.7253243923,9.22005793,
10.50385479,0.2416750938,9.363413811,-0.5195416212,9.380930047,
10.50636083,0.03349951655,9.581160545,-0.1866401732,9.583036793,
10.50886687,-0.007178467698,9.796515465,0.04546362907,9.796623588,
10.51137291,0.05503492057,9.983454704,0.2344966233,9.986359965,
10.51387896,0.3281157911,10.07438183,0.2775674164,10.08354466,
10.516385,0.6750751138,10.09352398,0.3137588799,10.12093856,
10.51889104,1.079761267,10.03848934,0.2727817893,10.10007735,
10.52139708,1.489233017,9.966704369,0.2368894368,10.08013529,
10.52390312,1.893620014,9.890133858,0.1818545163,10.0714257,
10.52640916,2.26241374,9.784550667,0.1770688742,10.04426707,
10.5289152,2.580958366,9.674481392,0.1316052526,10.01370342,
10.53142125,2.836990356,9.562018394,0.09571290761,9.974460939,
10.53392729,3.047558784,9.461520195,0.05024927482,9.940347274,
10.53643333,3.184248686,9.37298584,0.0143569354,9.899116595,
10.53893937,3.275176048,9.301200867,-0.02632104978,9.861024719,
10.54144541,3.313461065,9.20758152,-0.1148554832,9.786305404,
10.54395146,3.303889751,9.126225471,-0.2560320199,9.709234328,
10.5464575,3.244069338,9.066405296,-0.3903291821,9.637221993,
10.54896354,3.143570662,9.008976936,-0.4716851711,9.553333913,
10.55146958,3.040380239,8.963513374,-0.5386841893,9.48043589,
10.55397557,2.925524712,8.894122124,-0.5697908998,9.380232666,
10.55648161,2.84656167,8.867800713,-0.5769693851,9.331328763,
10.55898765,2.702992201,8.810373306,-0.4980062246,9.229130773,
10.5614937,2.585743904,8.805587769,-0.4549354017,9.188656796,
10.56399974,2.499303341,8.786444664,-0.3735794425,9.14263029,
10.56650578,2.417947292,8.752944946,-0.3376871049,9.087053809,
10.56901182,2.334198475,8.714659691,-0.2874378264,9.026427674,
10.57151786,2.257628202,8.690432549,-0.2392822653,8.982079881,
10.5740239,2.24566412,8.676075935,-0.2009970993,8.964245691,
10.57652994,2.346162558,8.661719322,-0.2273181528,8.976721779,
10.57903599,2.506481647,8.630612373,-0.2656033039,8.991132593,
10.58154203,2.631207705,8.611469269,-0.2560320199,9.008119079,
10.58404807,2.726920605,8.623434067,-0.2129612118,9.04682616,
10.58655411,2.753241539,8.647361755,-0.1842473447,9.076957166,
10.58906015,2.784348249,8.671290398,-0.1603191197,9.108763613,
10.5915662,2.870489836,8.678468704,-0.09571290761,9.14137254,
10.59407224,2.956631422,8.676075935,0.02632104978,9.166059993,
10.59657828,3.037987471,8.656932831,0.1986042857,9.176671378,
10.59908432,3.112463951,8.630612373,0.4166502357,9.184143902,
10.60159036,3.085843801,8.597112656,0.6559324861,9.157675764,
10.6040964,2.973381281,8.556434631,0.8572286963,9.098813707,
10.60660244,2.865704298,8.539685249,1.031904817,9.066604261,
10.60910849,2.758027315,8.522934914,1.110867858,9.02669162,
10.61161453,2.64077878,8.544470787,1.156331539,9.017693509,
10.61412057,2.525923491,8.58754158,1.165902853,9.026931335,
10.61662661,2.470589399,8.63779068,1.098903775,9.051123097,
10.61913265,2.441875458,8.762516975,0.9744769931,9.148446038,
10.6216387,2.353341103,8.894122124,0.8715856671,9.241389737,
10.62414474,2.255235434,9.047262192,0.7612167001,9.355131794,
10.62665078,2.207378864,9.188439369,0.6774678826,9.474117491,
10.62915682,2.14995122,9.325128555,0.6296114326,9.590449592,
10.63166286,2.011167526,9.483055115,0.6631109715,9.716627259,
10.6341689,1.797907114,9.607481956,0.7061817646,9.799738375,
10.63667495,1.587338686,9.719944954,0.7564310431,9.877710359,
10.63918099,1.37886405,9.801301003,0.742074132,9.925595268,
10.64168703,1.041476011,9.911669731,0.8955138922,10.00638867,
10.64419307,0.7085745931,9.988240242,0.9529415965,10.05858433,
10.64669911,0.3496512175,10.08156013,0.9720842242,10.13435042,
10.64920515,-0.05024927482,10.17248726,1.019940615,10.22361486,
10.6517112,-0.4166502357,10.25145054,0.9912267923,10.30768481,
10.65421724,-0.7683951855,10.31605625,1.015154958,10.39432477,
10.65672328,-1.120439172,10.37109184,1.101296663,10.48941296,
10.65922932,-1.438983679,10.43838978,1.189831018,10.60407247,
10.66173536,-1.840977907,10.50538826,1.31425786,10.74614609,
10.6642414,-2.133201361,10.59392357,1.342971683,10.88968951,
10.66674744,-2.465803623,10.66810036,1.402792215,11.03885767,
10.66925349,-2.836990356,10.7422781,1.41984117,11.20093755,
10.67175953,-3.196212769,10.80927753,1.434198022,11.36279811,
10.67426557,-3.531208038,10.91934681,1.479661703,11.57112629,
10.67677161,-3.785146236,11.03210926,1.539482236,11.76455576,
10.67927765,-3.926322937,11.11585712,1.565803289,11.89243589,
10.6817837,-4.067499161,11.22832012,1.663909078,12.05770773,
10.68428974,-4.189533234,11.35992527,1.764407635,12.23573558,
10.68679578,-4.259224415,11.48674488,1.80508554,12.38324006,
10.68930182,-4.278367043,11.5899353,1.773978829,12.48110675,
10.69180786,-4.287938118,11.68804169,1.726122379,12.56885954,
10.6943139,-4.240081787,11.76461124,1.75722909,12.62823128,
10.69681995,-4.1129632,11.82443237,1.943869352,12.66934471,
10.69932599,-3.940679789,11.83639622,2.214557409,12.67018142,
10.70183203,-3.761218071,11.80768204,2.51844573,12.64557968,
10.70433807,-3.567100286,11.75982571,2.714956284,12.58525696,
10.70684411,-3.430709362,11.67129135,2.762812853,12.47485244,
10.70935015,-3.370888948,11.50857925,2.612065077,12.27327066,
10.7118562,-3.3852458,11.35513973,2.350948334,12.07998533,
10.71436224,-3.442673683,11.25942707,2.142772675,11.96737961,
10.71686828,-3.557528973,11.21635628,2.035095692,11.94170319,
10.71937432,-3.675076485,11.25464153,2.037488461,12.01351333,
10.72188036,-3.792324781,11.37428284,2.13559413,12.17853848,
10.7243864,-3.880859137,11.52772236,2.250449657,12.36988173,
10.72689244,-3.967000723,11.72154045,2.312663078,12.58888461,
10.72939849,-4.03399992,11.94646645,2.336591244,12.82384009,
10.73190453,-4.077070713,12.17647648,2.346162558,13.05348857,
10.73441057,-4.122534275,12.42054367,2.394019127,13.30400397,
10.73691661,-4.179962158,12.66730404,2.480160713,13.56775119,
10.73942265,-4.271188259,12.90419388,2.568994284,13.83332933,
10.7419287,-4.33340168,13.11715508,2.607279301,14.05830832,
10.74443474,-4.39800787,13.29691505,2.542673111,14.234311,
10.74694078,-4.498506546,13.47398472,2.300698996,14.39020643,
10.74944682,-4.632504463,13.68455315,1.833799481,14.56330707,
10.75195286,-4.766502857,13.91456318,1.175474167,14.75521459,
10.7544589,-4.955834866,14.2064867,0.5027918816,15.05447984,
10.75696494,-5.149653435,14.56571007,-0.04067798331,15.44928785,
10.75947099,-5.408377171,14.99193096,-0.2392822653,15.93944145,
10.76197703,-5.695516109,15.48036575,-0.01674975827,16.49487521,
10.76448307,-6.037988663,15.97807312,0.6224330068,17.09220731,
10.76698911,-6.428019047,16.45454407,1.582553029,17.73628832,
10.76949515,-6.866204739,16.9046936,2.693420887,18.44364252,
10.7720012,-7.330711365,17.23041725,3.87368083,19.1215065,
10.77450724,-7.823931694,17.45773506,4.970191956,19.76586018,
10.77701328,-8.290831566,17.5749836,6.011667728,20.34104435,
10.77951932,-8.743373871,17.5630188,6.995417118,20.82887603,
10.78202536,-9.166903496,17.45773506,8.003393173,21.2804825,
10.7845314,-9.547661781,17.2615242,8.889336586,21.63650545,
10.78703745,-9.832706451,16.97647858,9.29402256,21.70856505,
10.78954349,-10.05284595,16.665411,9.006584167,21.44561013,
10.79204953,-10.1964159,16.38754463,8.079963684,20.92377426,
10.79455557,-10.1772728,16.23440361,6.557530403,20.25176405,
10.79706161,-9.961918831,16.31575966,4.448257446,19.62729819,
10.79956765,-9.554840088,16.67737579,2.681456804,19.40670098,
10.8020737,-9.073583603,17.17538261,2.293520451,19.55975264,
10.80457974,-8.599505424,17.67308807,2.817847729,19.85522101,
10.80708578,-8.099106789,18.07298851,3.095714331,20.04524611,
10.80959182,-7.622934818,18.35564232,2.791526794,20.07065923,
10.81209786,-7.105785847,18.53031731,1.785943031,19.92622504,
10.8146039,-6.581458569,18.55185318,-0.1411765367,19.685192,
10.81710994,-6.169594288,18.45853233,-2.68624258,19.64681167,
10.81961599,-5.82233572,18.20220184,-4.766502857,19.69617462,
10.82212203,-5.494519234,17.81217194,-5.331807137,19.38791835,
10.82462807,-5.128118038,17.42662811,-4.572684288,18.73217562,
10.82713411,-4.570291042,17.11047745,-3.629313707,18.07838258,
10.82964015,-3.837788343,16.93819237,-3.540779352,17.72478768,
10.8321462,-2.999702215,16.9046936,-4.500899315,17.74894289,
10.83465224,-1.98963201,16.94537163,-5.386841774,17.89196243,
10.83715828,-0.608076036,16.94058609,-4.733003139,17.59984467,
10.83966432,0.8306085467,16.84247971,-3.430709362,17.2083933,
10.84217036,2.219342947,16.72044563,-3.045166016,17.13977308,
10.8446764,3.490530014,16.44497299,-3.313461065,17.13475885,
10.84718245,4.768895626,16.03101349,-3.595814228,17.10747319,
10.84968849,6.193522453,15.51386547,-3.947858334,17.16465344,
10.85219453,7.752147198,14.94168186,-4.249652863,17.3611403,
10.85470057,9.282057762,14.28544998,-4.706682205,17.67437509,
10.85720661,10.83559799,13.61994648,-5.087440014,18.13271,
10.85971265,12.2171545,12.882658,-5.587839127,18.61305154,
10.8622187,13.61516094,12.2051897,-6.100202084,19.27567713,
10.86472474,14.97518158,11.56600761,-6.59342289,20.03751035,
10.86723078,16.19372559,10.96510983,-7.132106781,20.81675597,
10.86973687,17.25673866,10.36391354,-7.878966808,21.61674932,
10.87224286,18.28146362,9.765408516,-8.439186096,22.37844896,
10.8747489,19.25564194,9.150154114,-8.22383213,22.85030594,
10.877255,20.16551208,8.46072197,-7.110571384,22.99547606,
10.87976099,21.04666901,7.713861942,-5.48734045,23.07762656,
10.88226703,21.81985092,6.842276573,-4.264009953,23.26165136,
10.88477312,22.49492645,5.77208662,-3.847359657,23.54019703,
10.88727916,23.04557419,4.460221291,-3.990929127,23.81007306,
10.8897852,23.44547462,3.141177893,-4.211368084,24.02692032,
10.89229125,23.65125656,2.183450699,-4.167997837,24.11475896,
10.89479729,23.50050926,1.829013824,-4.002892971,23.90904388,
10.89730333,22.94268227,2.032702923,-3.732504129,23.33302676,
10.89980937,22.10698891,2.568994284,-3.406781197,22.51499163,
10.90231541,21.09691811,3.265604734,-3.117249727,21.57455385,
10.90482146,20.0793705,3.986143351,-2.877668381,20.67248011,
10.9073275,19.16950035,4.661218643,-2.674278498,19.90850242,
10.90983354,18.38674736,5.23818779,-2.525923491,19.28448546,
10.91233958,17.72603035,5.705087185,-2.494517565,18.78783621,
10.91484562,17.18016815,6.045167446,-2.643171787,18.40349381,
10.91735166,16.69891167,6.241378784,-2.959024191,18.07108973,
10.9198577,16.23679733,6.277271271,-3.35413909,17.72816886,
10.92236375,15.81536102,6.210271835,-3.79471755,17.40956639,
10.92486979,15.39631844,6.042774677,-4.252045631,17.07751853,
10.92737583,14.96321774,5.796014786,-4.644468784,16.70517173,
10.92988187,14.51546001,5.468197823,-4.948656559,16.28155302,
10.93238791,14.05334663,5.130510807,-5.137689114,15.81817127,
10.93489396,13.53141212,4.756931305,-5.231009483,15.26731704,
10.9374,12.98554897,4.376472473,-5.264508724,14.67968138,
10.93990604,12.47318649,3.967000723,-5.281258583,14.1141478,
10.94241208,11.97757244,3.528815269,-5.326722145,13.57529917,
10.94491812,11.44845963,3.083451033,-5.372485161,13.01685426,
10.94742416,10.93370438,2.621636391,-5.355735302,12.45402623,
10.94993021,10.4288187,2.21216464,-5.226223946,11.87296714,
10.95243625,9.959526062,1.766800404,-5.030012131,11.29667053,
10.95494229,9.569196701,1.328614831,-4.850550652,10.81029993,
10.95744833,9.233902931,0.9696913958,-4.711467743,10.41168541,
10.95995437,8.970691681,0.6511468887,-4.673182487,10.13587372,
10.96246041,8.781659126,0.4070789516,-4.716253281,9.976286648,
10.96496646,8.748159409,0.2153540403,-4.749752998,9.956747659,
10.9674725,8.779266357,0.1100698411,-4.785944462,9.999644871,
10.96997854,8.910871506,0.07896314561,-4.785944462,10.11509419,
10.97248458,9.097511292,0.1076770201,-4.754538536,10.26557075,
10.97499062,9.361021042,0.2033899277,-4.718646049,10.48502279,
10.97749666,9.605089188,0.3305086195,-4.68275404,10.69089143,
10.9800027,9.837491989,0.4764707983,-4.630111694,10.88306976,
10.98250875,10.05045319,0.6152545214,-4.579862595,11.0618845,
10.98501479,10.26819992,0.742074132,-4.508078098,11.23874423,
10.98752083,10.42642593,0.8066803217,-4.388436794,11.34105235,
10.99002687,10.56760216,0.8644071817,-4.211368084,11.40863867,
10.99253291,10.68724346,0.9242277741,-4.057928085,11.46900825,
10.99503896,10.7925272,0.9457631707,-3.96939373,11.53816267,
10.997545,10.87149048,0.926620543,-3.909573078,11.59019812,
11.00005104,10.9121685,0.8787640929,-3.85932374,11.60784336,
11.00255708,10.88824081,0.8090731502,-3.766003847,11.54950962,
11.00506317,10.82363415,0.7253243923,-3.593421459,11.42759071,
11.00756922,10.74945641,0.6272186637,-3.413959742,11.29598767,
11.01007526,10.64656544,0.5003990531,-3.327818155,11.16575696,
11.0125813,10.5293169,0.3975076675,-3.325425386,11.04911674,
11.01508734,10.40728283,0.3017947674,-3.363710403,10.94153388,
11.01759338,10.31605625,0.2057827413,-3.421138287,10.87048988,
11.02009942,10.21555805,0.1292124242,-3.435495138,10.77854114,
11.02260546,10.12941647,0.0933200866,-3.406781197,10.68737314,
11.02511151,10.03131104,0.04546362907,-3.313461065,10.56448258,
11.02761755,9.926026344,0.004785645287,-3.177070379,10.42208223,
11.03012359,9.842277527,-0.02153540403,-3.052344322,10.30474146,
11.03262963,9.739087105,-0.07178468257,-2.987738132,10.187323,
11.03513567,9.660123825,-0.1220339537,-2.959024191,10.10389572,
11.03764172,9.573982239,-0.1866401732,-2.913560629,10.00923603,
11.04014776,9.466305733,-0.2727817893,-2.827419043,9.883301704,
11.0426538,9.349057198,-0.3352942765,-2.71974206,9.742396502,
11.04515984,9.212367058,-0.3903291821,-2.602493763,9.580868304,
11.04766588,9.092725754,-0.4429712892,-2.535494804,9.450006302,
11.05017192,8.98026371,-0.4932205677,-2.504088879,9.33589117,
11.05267796,8.891729355,-0.5386841893,-2.475374937,9.245567189,
11.05518401,8.815158844,-0.5841478109,-2.429911375,9.162571877,
11.05769005,8.764909744,-0.6032904387,-2.398804665,9.107242502,
11.06019609,8.733802795,-0.6176473498,-2.410768747,9.081442918,
11.06270213,8.736195564,-0.6104688644,-2.434697151,9.089638903,
11.06520817,8.752944946,-0.6128616929,-2.444268227,9.10846265,
11.06771422,8.762516975,-0.6128616929,-2.425125837,9.11254841,
11.07022026,8.781659126,-0.5817549825,-2.386840582,9.118825792,
11.0727263,8.791230202,-0.5889334679,-2.329412937,9.113656551,
11.07523234,8.839086533,-0.6176473498,-2.322234392,9.159896918,
11.07773838,8.867800713,-0.6296114326,-2.329412937,9.190237465,
11.08024442,8.903693199,-0.6655037999,-2.307877541,9.221981709,
11.08275046,8.982656479,-0.7157530785,-2.317448616,9.304353173,
11.08525651,9.025727272,-0.7612167001,-2.269592285,9.33778629,
11.08776255,9.097511292,-0.8210372925,-2.216950178,9.399663932,
11.09026859,9.1860466,-0.8739784956,-2.221735716,9.491227536,
11.09277468,9.296415329,-0.9314061999,-2.221735716,9.603487131,
11.09528073,9.370592117,-0.9433703423,-2.200200319,9.671547222,
11.09778677,9.483055115,-0.9314061999,-2.200200319,9.779403523,
11.10029281,9.60030365,-0.8668000102,-2.252842426,9.899114679,
11.10279885,9.676874161,-0.7875377536,-2.362912416,9.992270229,
11.10530489,9.758230209,-0.660718143,-2.264806747,10.03937024,
11.10781093,9.825528145,-0.5386841893,-2.073380709,10.05634583,
11.11031698,9.890133858,-0.4046861231,-1.860120535,10.07167151,
11.11282302,9.949954987,-0.1986042857,-1.711765528,10.09807849,
11.11532906,9.990633011,0.03110669367,-1.54905355,10.11005848,
11.1178351,10.05284595,0.2898306549,-1.400399446,10.15405496,
11.12034114,10.15334511,0.5243272781,-1.321436286,10.25239142,
11.12284718,10.14377308,0.742074132,-1.182652593,10.23940787,
11.12535323,10.34237766,1.041476011,-1.103689432,10.45311333,
11.12785927,10.61306572,1.340578914,-0.9577272534,10.74018423,
11.13036531,10.84038353,1.642373681,-0.6798607111,10.98514984,
11.13287135,11.06321526,1.93190515,-0.4525425732,11.23974128,
11.13537739,11.21157074,2.152343988,-0.2584248483,11.41922443,
11.13788343,11.35513973,2.34137702,-0.1507478207,11.59499761,
11.14038948,11.37189007,2.504088879,-0.06939185411,11.64453348,
11.14289552,11.32881927,2.688635349,-0.05503492057,11.64362208,
11.14540156,11.24746323,2.959024191,-0.07417750359,11.6304237,
11.1479076,11.0440731,3.258426189,-0.1986042857,11.51643763,
11.15041364,10.64895821,3.555136204,-0.5075774789,11.2381911,
11.15291968,10.07198906,3.864109516,-0.7755736113,10.81562853,
11.15542573,9.363413811,4.201497555,-0.8835497499,10.30081356,
11.15793177,8.585148811,4.704289436,-0.7444669604,9.817807814,
11.16043781,7.646862984,5.242973328,-0.4214358926,9.281211721,
11.16294385,6.626922131,5.829514027,0.1124626622,8.826776227,
11.16544989,5.56630373,6.457031727,0.7205387354,8.555476141,
11.16795593,4.402793884,7.069893837,1.287936807,8.427738372,
11.17046203,3.258426189,7.687541008,1.697408557,8.520376975,
11.17296807,1.907976985,8.231010437,2.035095692,8.690887381,
11.17547411,0.6487540603,8.705088615,2.202593327,9.002825501,
11.17798015,-0.4836492836,9.095118523,2.21216464,9.372767466,
11.1804862,-1.508375525,9.401699066,2.236092806,9.780963812,
11.18299224,-2.394019127,9.638588905,2.355733871,10.20701748,
11.18549828,-3.172284603,9.784550667,2.679064035,10.62912063,
11.18800432,-3.93828702,9.789336205,3.179463148,11.02044436,
11.19051036,-4.627718925,9.717552185,3.888037682,11.4439259,
11.1930164,-5.219045162,9.538089752,4.658825874,11.82870437,
11.19552244,-5.786443233,9.286844254,5.326722145,12.16973173,
11.19802849,-6.27966404,8.997013092,5.800800323,12.41087061,
11.20053453,-6.820741177,8.654540062,6.016453266,12.55473153,
11.20304057,-7.318747044,8.231010437,6.143272877,12.6116372,
11.20554661,-7.78325367,7.742575645,6.037988663,12.52931851,
11.20805265,-8.079963684,7.239784241,5.83669281,12.31938602,
11.2105587,-8.173583031,6.765706062,5.494519234,11.94872293,
11.21306474,-8.168797493,6.339484692,5.063511848,11.51336054,
11.21557078,-8.22383213,6.002096653,4.520041943,11.13945054,
11.21807682,-8.326724052,5.793622017,3.811467409,10.836405,
11.22058286,-8.379365921,5.752943993,3.045166016,10.61052185,
11.2230889,-8.458329201,5.858228207,2.310270309,10.54511828,
11.22559495,-8.46072197,6.104988098,1.817049742,10.59039025,
11.22810099,-8.568398476,6.444768906,1.817049742,10.87447325,
11.23060703,-8.831908226,6.918846607,2.384447813,11.46990116,
11.23311307,-9.31555748,7.514958382,3.411566973,12.44560163,
11.23561911,-10.14855862,8.207082748,4.563112736,13.82647631,
11.23812515,-11.11585712,8.934800148,5.298008442,15.21386955,
11.2406312,-11.92971611,9.60030365,5.343770981,16.21850317,
11.24313729,-12.71994591,10.10309505,4.819443703,16.9439249,
11.24564328,-13.08604813,10.45274639,3.718147278,17.15602465,
11.24814932,-13.57209015,10.4599247,2.659921408,17.34032403,
11.25065541,-14.08684635,10.07916737,1.862513304,17.42118856,
11.25316146,-13.97916889,9.483055115,1.230509043,16.93693153,
11.2556675,-13.55055428,8.656932831,1.175474167,16.12270904,
11.25817354,-12.70319653,7.756932735,1.297508121,14.9407073,
11.26067958,-11.65932751,6.837490559,1.563410521,13.60644875,
11.26318562,-10.17488003,5.99491787,1.522732496,11.90739006,
11.26569166,-8.443971634,5.235795021,1.254437327,10.01438063,
11.2681977,-6.669992924,4.661218643,1.034297585,8.202776136,
11.27070375,-4.984548569,4.910371304,0.8955138922,7.054035434,
11.27320979,-3.189034462,5.858228207,0.6008976102,6.697003543,
11.27571583,-1.192223907,6.923632145,-0.2153540403,7.028830435,
11.27822187,0.8931210637,7.828717709,-1.307079315,7.987173626,
11.28072791,2.97577405,8.510971069,-1.862513304,9.206563721,
11.28323396,4.778766155,9.176474571,-1.893620014,10.51808387,
11.28574,6.119344711,10.00977516,-1.790728688,11.86796898,
11.28824604,7.101000309,11.137393,-1.771586061,13.32682428,
11.29075208,7.881359577,12.63380432,-1.180259824,14.93726393,
11.29325812,8.398508072,14.56092358,0.8787640929,16.83233969,
11.29576416,8.556434631,16.88315773,4.90319252,19.55236266,
11.29827021,8.314759254,19.5215435,10.77817059,23.79905131,
11.30077625,7.634898663,22.30828476,17.68056679,29.47123493,
11.30328234,6.531209469,24.78126717,23.4047966,34.70666223,
11.30578838,5.120939732,26.22503662,25.0304203,36.61281893,
11.30829442,3.595814228,26.15325165,21.26680946,33.89984715,
11.31080047,1.999203324,24.81237411,13.85952759,28.49100258,
11.31330651,0.794716239,22.80629158,5.1233325,23.38818175,
11.31581255,-0.3783650696,20.66830444,-1.706979871,20.74212499,
11.31831859,-1.999203324,18.87039757,-5.245366573,19.68762527,
11.32082463,-4.256831646,17.54626846,-5.889334679,18.99148271,
11.32333067,-7.065107822,16.66062546,-4.295116425,18.59946812,
11.32583672,-9.681659698,16.1697979,-1.812264085,18.93359975,
11.32834276,-11.83400345,15.8440752,0.3065803945,19.77807746,
11.3308488,-13.45005608,15.43250942,1.783550143,20.54865949,
11.33335484,-14.43889046,14.76909924,2.305484533,20.78275989,
11.33586088,-14.32882023,13.86670589,2.032702923,20.04326577,
11.33836692,-13.04297733,12.74148178,1.302293777,18.28005976,
11.34087296,-10.46710396,11.37667561,0.2970091105,15.46212235,
11.34337901,-7.313961506,9.918848038,-0.8377870321,12.35230612,
11.34588505,-4.256831646,8.384151459,-2.164308071,9.648774055,
11.34839109,-1.489233017,6.847062111,-3.64127779,7.896770129,
11.35089713,0.9984052777,5.38923502,-4.905585289,7.35563962,
11.35340317,3.253640652,4.129712582,-5.638088226,7.709003979,
11.35590922,5.30279398,3.138785124,-5.843871117,8.492492312,
11.35841526,7.153642178,2.40598321,-6.059524059,9.678904041,
11.3609213,8.760123253,1.934298038,-6.619743824,11.14909308,
11.36342739,10.20598698,1.718943954,-7.534101009,12.80154743,
11.36593343,11.49631596,1.735693693,-8.668897629,14.50267904,
11.36843948,12.74866009,2.061416626,-9.782157898,16.20087608,
11.37094552,14.0054903,2.693420887,-10.59392357,17.76624584,
11.37345156,15.20728493,3.55992198,-10.85234833,19.01862307,
11.3759576,16.34686661,4.493721008,-10.41206837,19.89534478,
11.37846364,17.44577026,5.353342533,-9.090332985,20.38743069,
11.38096968,18.5039959,6.126523495,-6.964310169,20.69864175,
11.38347573,19.46172333,6.882954121,-4.405186653,21.10780429,
11.38598177,20.11526299,7.637291908,-2.169093609,21.6253786,
11.38848781,20.3928318,8.348258972,-0.8258228898,22.05091835,
11.39099385,20.27318954,8.992227554,-0.5362913609,22.18445355,
11.39349989,19.78954124,9.528518677,-0.9050851464,21.98267022,
11.39600593,19.03310966,9.906884193,-1.5011971,21.50951442,
11.39851198,18.13281059,10.22512913,-1.90079844,20.90371068,
11.40101802,17.07458496,10.51017475,-1.987239242,20.14830873,
11.40352406,15.87996769,10.75424194,-1.814656854,19.26447697,
11.4060301,14.60638809,10.96989536,-1.527518153,18.3308071,
11.40853614,13.28734398,11.14935684,-1.189831018,17.38612567,
11.41104224,11.92014503,11.29531956,-0.8428717852,16.44337357,
11.41354828,10.50299549,11.37189007,-0.5099703074,15.48847532,
11.41605432,9.066405296,11.41496086,-0.2751746178,14.58001226,
11.41856036,7.599006653,11.37667561,-0.2009970993,13.68261853,
11.4210664,6.162415504,11.27856922,-0.2679961324,12.85508889,
11.42357245,4.788337231,11.11107159,-0.4932205677,12.10897815,
11.42607849,3.528815269,10.88106155,-0.7923234105,11.46637755,
11.42858453,2.444268227,10.63220787,-1.144367456,10.96940601,
11.43109057,1.608874083,10.34955597,-1.462911963,10.57553289,
11.43359661,1.02711916,10.0767746,-1.678265929,10.26708024,
11.43610265,0.7253243923,9.856635094,-1.795514345,10.04505961,
11.4386087,0.6463612318,9.676874161,-1.907976985,9.884333692,
11.44111474,0.7085745931,9.55005455,-2.059023857,9.795162026,
11.44362078,0.8428717852,9.451948166,-2.32701993,9.7706079,
11.44612682,0.9888339639,9.392127991,-2.679064035,9.81668197,
11.44863286,1.118046403,9.358628273,-3.049951553,9.906369435,
11.4511389,1.194616675,9.325128555,-3.366103172,9.985778995,
11.45364494,1.228116274,9.289237022,-3.598206997,10.03719521,
11.45615099,1.256830096,9.262915611,-3.734897137,10.06631433,
11.45865708,1.319043517,9.198010445,-3.744468451,10.01819924,
11.46116312,1.446162224,9.142974854,-3.701397419,9.969238547,
11.46366916,1.647159338,9.097511292,-3.614956856,9.927021641,
11.4661752,1.915155411,9.097511292,-3.454637766,9.918016638,
11.46868125,2.269592285,9.131011009,-3.229712248,9.947736044,
11.47118729,2.631207705,9.209974289,-2.963809967,10.02651734,13.216354953000838
11.47369333,3.042773008,9.272486687,-2.659921408,10.11497201,13.217094403720576
11.47619937,3.440280676,9.320343018,-2.384447813,10.21713837,13.218003603186382
11.47870541,3.84257412,9.380164146,-2.147558212,10.36170167,13.219124316077547
11.48121146,4.264009953,9.384949684,-1.8840487,10.47896469,13.220349357737849
11.4837175,4.673182487,9.411270142,-1.584945917,10.62650901,13.221707515008216
11.48622354,5.101797104,9.404091835,-1.26640141,10.77353468,13.223191456437068
11.48872958,5.475376606,9.406484604,-0.950548768,10.92544024,13.224797333168473
11.49123562,5.855835438,9.425627708,-0.7085745931,11.11914315,13.226561257031582
11.49374166,6.181558132,9.47109127,-0.5195416212,11.32179996,13.228554590634825
11.4962477,6.476174355,9.557232857,-0.3807578981,11.55103938,13.23078330147782
11.49875375,6.727420807,9.643374443,-0.2727817893,11.76126147,13.233219277591099
11.50125979,6.928418159,9.731908798,-0.1698904037,11.94746374,13.235871880634528
11.50376588,7.041179657,9.803693771,-0.06221338734,12.07039738,13.23875368294108
11.50627192,7.079464912,9.875777245,0.05503492057,12.15124802,13.24178114478582
11.50877796,7.026822567,9.969097137,0.1651047617,12.19780278,13.24490936001727
11.51128401,6.935596466,10.06720352,0.2201396823,12.22700072,13.248098659277694
11.51379005,6.7704916,10.10070229,0.2033899277,12.16162451,13.251245840689906
11.51629609,6.524031162,10.09591675,0.1220339537,12.0210403,13.254226566351878
11.51880213,6.231807709,10.08156013,-0.01674975827,11.85215435,13.257006448173435
11.52130817,5.882156372,10.04806042,-0.1651047617,11.64433516,13.259519396330985
11.52381422,5.494519234,10.00977516,-0.332901448,11.42349175,13.261752601255527
11.52632026,5.080261707,9.966704369,-0.5027918816,11.19808263,13.263659300034572
11.5288263,4.634897232,9.921240807,-0.6296114326,10.96857794,13.26521220560985
11.53133234,4.136891365,9.88534832,-0.7277171612,10.7407427,13.266385335838123
11.53383838,3.602992773,9.868598938,-0.8691928387,10.54164589,13.267344656968822
11.53634442,3.0981071,9.844670296,-1.019940615,10.37092473,13.268173434380412
11.53885047,2.607279301,9.818050385,-1.204187989,10.22947151,13.268900713956908
11.54135651,2.142772675,9.784550667,-1.381256819,10.11122035,13.269463423925586
11.54386255,1.745265007,9.74865818,-1.5011971,10.01677987,13.269859507354427
11.54636859,1.427019596,9.693623543,-1.592124343,9.926609806,13.270168009864705
11.54887468,1.165902853,9.614660263,-1.647159338,9.824161813,13.270452623105545
11.55138073,1.05822587,9.466305733,-1.671087503,9.670745559,13.270498762209199
11.55388677,1.019940615,9.317950249,-1.66151619,9.519722251,13.270178720166696
11.55639281,0.9912267923,9.183652878,-1.613659739,9.376881597,13.26948437159906
11.55889885,1.015154958,9.071190834,-1.58016026,9.263581877,13.26843882263287
11.56140489,1.043868899,8.994620323,-1.534696579,9.184124924,13.267192542299325
11.56391093,1.094118118,8.953942299,-1.45334065,9.136869059,13.265753051176358
11.56641698,1.220937729,8.946763992,-1.374078393,9.133639269,13.264252558293247
11.56892302,1.422233939,8.965906143,-1.275972724,9.167242156,13.262674499314915
11.57142906,1.668694735,9.018548965,-1.168295622,9.245738598,13.261105497782848
11.5739351,1.936690807,9.09990406,-1.089332461,9.367265898,13.259541336582245
11.57644114,2.255235434,9.202795982,-1.019940615,9.529838383,13.258184177977087
11.57894718,2.573779821,9.308379173,-0.9864411354,9.707900469,13.25708437611642
11.58145323,2.832204819,9.406484604,-0.9625129104,9.870651845,13.256242448321036
11.58395927,3.076272726,9.506983757,-0.9002995491,10.03278293,13.255660805513042
11.58646531,3.287140131,9.609874725,-0.7803592682,10.18645881,13.25557419100868
11.58897135,3.421138287,9.712766647,-0.555433929,10.31263933,13.255919875112927
11.59147744,3.502494097,9.791728973,-0.3161516786,10.40410366,13.25660685153806
11.59398343,3.504886866,9.859027863,-0.1004985496,10.4639745,13.257498409398718
11.59648948,3.423531055,9.892526627,0.06460621208,10.46837246,13.258522714194203
11.59899557,3.263211966,9.906884193,0.2201396823,10.43280251,13.259395771918097
11.60150161,3.061915636,9.902098656,0.3975076675,10.37231399,13.259837047551715
11.60400765,2.813062191,9.859027863,0.5841478109,10.26912742,13.259761977414705
11.6065137,2.506481647,9.784550667,0.7253243923,10.12649878,13.259086236989177
11.60901974,2.188236237,9.672088623,0.7923234105,9.948138145,13.257794106480409
11.61152578,1.910369754,9.523733139,0.7683951855,9.743789646,13.255875468976376
11.61403182,1.673480392,9.361021042,0.7229315639,9.536869592,13.253295943709059
11.61653786,1.415055513,9.274879456,0.6439684033,9.40427915,13.250104308588407
11.6190439,1.173081279,9.20758152,0.6032904387,9.301593223,13.246314405303401
11.62154994,0.8234301209,9.20758152,0.6798607111,9.269293673,13.242045234910242
11.62405599,0.5338985324,9.217152596,0.6966105103,9.258845274,13.237444221427213
11.62656203,0.2201396823,9.248259544,0.7803592682,9.283734522,13.232645053675284
11.62906812,-0.1196411327,9.291629791,0.8401798606,9.330305481,13.22784830695179
11.63157416,-0.4022932947,9.305986404,0.8524430394,9.353602621,13.223305243268975
11.6340802,-0.6535396576,9.339486122,0.8282157183,9.398885912,13.21923808289551
11.63658625,-0.8931210637,9.329915047,0.7803592682,9.404995513,13.215771046419823
11.63909229,-1.079761267,9.337093353,0.6942176819,9.424920948,13.212882650854361
11.64159833,-1.21854496,9.327521324,0.632004261,9.427986808,13.210412109502515
11.64410437,-1.374078393,9.305986404,0.6128616929,9.426827348,13.208179798164597
11.64661041,-1.494018674,9.277272224,0.6774678826,9.421190713,13.206093275165088
11.64911646,-1.582553029,9.243474007,0.7636095285,9.409005543,13.204098498109024
11.6516225,-1.539482236,9.183652878,0.818644464,9.347709051,13.202118106346857
11.65412854,-1.460519075,9.119047165,0.8811569214,9.277207268,13.19997921447157
11.65663458,-1.371685624,9.035298347,0.9314061999,9.186166512,13.197354508743233
11.65914062,-1.225723386,8.941978455,0.8859425783,9.068972971,13.19384536504631
11.66164666,-1.012762189,8.848658562,0.794716239,8.941812987,13.189126029538324
11.66415271,-0.8428717852,8.800801277,0.6990033388,8.868660645,13.183127427545436
11.66665875,-0.6248258352,8.796015739,0.5626124144,8.836109604,13.176106720488328
11.66916479,-0.4310071766,8.829515457,0.4262215197,8.850298028,13.168538826306607
11.67167088,-0.2129612118,8.896514893,0.3113660514,8.904508888,13.160893748657514
11.67417692,-0.03589234129,8.999405861,0.2392822653,9.002657947,13.15367877098694
11.67668297,0.1196411327,9.145368576,0.1531406492,9.147433107,13.147196117348376
11.67918901,0.2368894368,9.317950249,0.1004985496,9.321502744,13.141561190698555
11.68169505,0.2826521695,9.490233421,0.08135596663,9.494790226,13.136910221618077
11.68420109,0.2874378264,9.676874161,0.1076770201,9.681740978,13.133390274036069
11.68670713,0.2560320199,9.83509922,0.2344966233,9.841225418,13.131127537297127
11.68921317,0.2297109663,9.997811317,0.3448655605,10.00639448,13.130157509148626
11.69171922,0.2105683982,10.15334511,0.4573282301,10.16582043,13.130542960951173
11.69422526,0.1292124242,10.28255749,0.5721837282,10.29927563,13.132288554230952
11.6967313,0.01674975827,10.35194874,0.632004261,10.37123679,13.13522510751121
11.69923734,-0.1124626622,10.38335514,0.6152545214,10.40217525,13.139245463666523
11.70174338,-0.2536391914,10.40010452,0.5985047817,10.42039898,13.14423456599345
11.70424942,-0.4932205677,10.40010452,0.5769693851,10.42776746,13.149606241428385
11.70675552,-0.7995018363,10.40728283,0.5458626747,10.45221054,13.154006464895833
11.70926156,-1.086939692,10.43121147,0.5410770178,10.50163678,13.156717798455173
11.7117676,-1.292722464,10.4288187,0.5362913609,10.5223096,13.157240968104286
11.71427364,-1.48444736,10.44556808,0.5985047817,10.56748241,13.155709411612225
11.71677968,-1.738086581,10.48863888,0.7492526174,10.6580425,13.15260109902482
11.71928573,-1.960619092,10.55803108,0.9122636318,10.77721079,13.148149523786323
11.72179177,-2.178664923,10.60110188,1.079761267,10.87638847,13.14221494363124
11.72429781,-2.370090723,10.67288589,1.189831018,10.99743248,13.134673796077127
11.72680385,-2.561815739,10.74467087,1.268794179,11.11848419,13.125330439366728
11.72930989,-2.731706142,10.85713387,1.295115232,11.27017736,13.113683682966817
11.73181593,-2.805883646,11.01296616,1.321436286,11.44135483,13.098882962695068
11.73432198,-2.829811811,11.14217854,1.431805253,11.58473322,13.08050236374259
11.73682802,-2.863311291,11.2570343,1.561017632,11.71990396,13.059460028079735
11.73933406,-2.848954439,11.35035419,1.647159338,11.81779233,13.038236501248575
11.7418401,-2.825026274,11.4197464,1.747657895,11.89309419,13.019740028434988
11.74434614,-2.81545496,11.45085239,1.898405671,11.94373272,13.00575691255651
11.74685224,-2.810669184,11.46281719,2.133201361,11.9936061,12.996120792515756
11.74935828,-2.825026274,11.4699955,2.472982168,12.06885293,12.989210163374493
11.75186432,-2.805883646,11.44606686,2.817847729,12.11716532,12.983689111468063
11.75437036,-2.731706142,11.35992527,3.057130098,12.07709257,12.978666402096438
11.7568764,-2.607279301,11.1948204,3.153141975,11.91906932,12.973392176106547
11.75938244,-2.489732027,10.99143124,3.035594702,11.67155351,12.967059436995674
11.76188849,-2.43708992,10.76620674,2.786741018,11.38492602,12.959552000907024
11.76439453,-2.360519648,10.56281662,2.523231506,11.11358831,12.951310606350209
11.76690057,-2.300698996,10.41446114,2.264806747,10.90337408,12.9432944622496
11.76940661,-2.233700037,10.35434151,1.999203324,10.77954627,12.936531090120807
11.77191265,-2.152343988,10.38574791,1.747657895,10.74944893,12.932081185670983
11.7744187,-2.08534503,10.52453136,1.568196177,10.84313901,12.930276205548667
11.77692474,-2.042274237,10.7422781,1.424626827,11.02710227,12.930864859660153
11.77943078,-2.015953064,10.98664474,1.352542996,11.25165775,12.933199259424203
11.78193687,-1.992024899,11.25224876,1.295115232,11.50037342,12.936252052297213
11.78444291,-1.93190515,11.50110245,1.273579836,11.73156514,12.939032170898722
11.78694896,-1.848156333,11.75982571,1.280758262,11.97286616,12.941141039099342
11.789455,-1.759621978,11.99193001,1.280758262,12.18782165,12.942569837366305
11.79196104,-1.66151619,12.25543976,1.316650629,12.43744381,12.94342578103659
11.79446708,-1.58016026,12.49711418,1.359721422,12.6697913,12.943772895258565
11.79697312,-1.510768414,12.70558929,1.46769762,12.87899673,12.943483596059645
11.79947916,-1.446162224,12.89940739,1.67587316,13.08795809,12.942545758218836
11.80198521,-1.424626827,13.05254841,1.917548299,13.26934712,12.940702165229732
11.80449125,-1.412662625,13.17936802,2.066202402,13.41493755,12.937613668594858
11.80699729,-1.465304732,13.29930782,2.032702923,13.533314,12.93304842606409
11.80950333,-1.553839207,13.46680546,1.764407635,13.67049377,12.927172036387187
11.81200937,-1.695015788,13.65823174,1.302293777,13.82448342,12.92055909429881
11.81451541,-1.905584097,13.92413425,0.818644464,14.07774642,12.914048946879406
11.81702151,-2.140379906,14.27827168,0.4429712892,14.44460078,12.908162015258782
11.81952755,-2.449054003,14.69492245,0.2826521695,14.90028535,12.9030451601669
11.82203359,-2.829811811,15.19053555,0.4214358926,15.45761344,12.898738311336924
11.82453963,-3.308675528,15.69332695,0.9050851464,16.06384212,12.895334672186603
11.82704567,-3.926322937,16.15065575,1.639980793,16.70177325,12.893100592010251
11.82955172,-4.666004181,16.54786491,2.535494804,17.37907253,12.892267960989816
11.83205776,-5.549553871,16.84487343,3.543172121,18.0859442,12.893059572137977
11.8345638,-6.490531445,17.01237106,4.546362877,18.76745009,12.895576320780979
11.83706984,-7.500601768,17.06501198,5.56630373,19.45398154,12.899843904723639
11.83957588,-8.53011322,17.02672768,6.56470871,20.14367611,12.90580586283404
11.84208192,-9.514162064,16.87837219,7.500601768,20.77637491,12.913286996180098
11.84458796,-10.4216404,16.66780472,8.211868286,21.30401566,12.92202371912046
11.84709406,-11.20917797,16.44018745,8.518149376,21.64449822,12.931679405940542
11.8496001,-11.82682514,16.20329857,8.376973152,21.73923542,12.941865633908883
11.85210614,-12.27458191,16.02862167,7.902894974,21.68035569,12.952318269082388
11.85461218,-12.4803648,15.9373951,7.189534664,21.48137511,12.962791215085739
11.85711823,-12.46840096,15.98285866,5.987739563,21.13683558,12.973067157075517
11.85962427,-12.20040417,16.1578331,4.242474556,20.68632453,12.98297761336125
11.86213031,-11.72393322,16.4712944,2.939881802,20.43029746,12.992696059177995
11.86463635,-11.1876421,16.8041954,2.628814697,20.35816754,13.002377659723908
11.86714239,-10.59631634,17.12034607,2.585743904,20.29961184,13.012017459528677
11.86964843,-9.949954987,17.46491432,2.291127682,20.23052403,13.02159679716368
11.87215448,-9.212367058,17.83609962,1.766800404,20.15231352,13.031076798528316
11.87466052,-8.384151459,18.15673828,1.132403374,20.03106283,13.040422536181865
11.87716656,-7.553243637,18.42503357,0.1172483116,19.91349037,13.049609695223179
11.8796726,-6.681957245,18.58535194,-1.80508554,19.83235219,13.058703405897887
11.8821787,-5.846263885,18.61645889,-4.228117466,19.96567856,13.067974254486588
11.88468474,-5.092225552,18.46810341,-6.045167446,20.08844578,13.077478608043947
11.88719078,-4.352544308,18.1591301,-6.097809315,19.64387758,13.086725054458798
11.88969682,-3.59102869,17.80977821,-5.068297386,18.86190143,13.09544989805756
11.89220286,-2.841775894,17.52952003,-4.189533234,18.24587492,13.103833009017979
11.8947089,-1.987239242,17.31895065,-3.588635683,17.79813129,13.111983887238498
11.89721494,-1.034297585,17.18495369,-2.580958366,17.40843907,13.119885884367788
11.89972099,-0.04546362907,17.03629875,-1.699801445,17.12094819,13.127552563648866
11.90222703,0.8210372925,16.78265953,-1.953440547,16.9159006,13.134966831626315
11.90473307,1.59691,16.43779373,-3.198605776,16.82207666,13.14217548493567
11.90723911,2.68624258,15.98046589,-4.460221291,16.80728304,13.14920545822031
11.9097452,3.909573078,15.40588951,-5.101797104,16.69294842,13.155962777497711
11.91225125,5.401198864,14.8145628,-5.085047245,16.56809964,13.162449044328152
11.91475729,6.997809887,14.2064867,-4.90319252,16.57814539,13.168794049321138
11.91726333,8.700303078,13.58644676,-4.884049892,16.85647509,13.175226803120713
11.91976937,10.45035362,12.96162128,-4.986941338,17.380538,13.181979683319756
11.92227541,12.14297676,12.32722378,-5.346164227,18.11059918,13.189212495652676
11.92478146,13.7662077,11.68086243,-6.174379826,19.08072293,13.197159781745608
11.9272875,15.25274849,11.07518005,-7.230212688,20.18865833,13.20590398339731
11.92979354,16.64387703,10.49342442,-8.305188179,21.35665585,13.215478736869052
11.93229958,17.89352798,9.93559742,-9.274879456,22.47037669,13.225846366845705
11.93480562,18.9996109,9.425627708,-10.06241703,23.47509124,13.236965590235483
11.93731166,19.92383766,8.930013657,-10.28255749,24.13369925,13.248547877309504
11.93981776,20.68026924,8.379365921,-9.495018959,24.24959163,13.260142641872902
11.9423238,21.27638054,7.749754429,-7.807182312,23.95193433,13.271409366958155
11.94482984,21.8174572,7.062715054,-5.920740604,23.68414136,13.282469706080965
11.94733588,22.29153633,6.179165363,-4.721039295,23.6089578,13.293629481190145
11.94984192,22.68874359,5.037190914,-4.644468784,23.70070607,13.305132009234132
11.95234797,23.01686096,3.694219112,-5.178367138,23.8796698,13.31712676289921
11.95485401,23.16760826,2.394019127,-5.559125423,23.94521404,13.329537589694366
11.95736005,23.06232452,1.546660781,-5.410770416,23.73898499,13.342106777330061
11.95986609,22.64088821,1.376471281,-4.77637291,23.18012577,13.354483328600248
11.96237213,21.89881325,1.721336842,-3.897608995,22.30946835,13.366308747310716
11.96487823,20.90519333,2.353341103,-3.093321562,21.26344188,13.377346651384302
11.96738427,19.84457588,3.110071182,-2.628814697,20.25809471,13.38759632899898
11.96989031,18.80818367,3.876073599,-2.549851656,19.37197623,13.397115949709008
11.97239635,17.92942047,4.599005222,-2.561815739,18.6863016,13.406078193834063
11.97490239,17.25195122,5.192724228,-2.726920605,18.22169865,13.41465237270307
11.97740843,16.73480415,5.685945034,-2.951845884,17.91918065,13.422970900478317
11.97991448,16.36122322,6.033203125,-3.131606579,17.7171139,13.431123677198496
11.98242052,16.07169151,6.289235115,-3.253640652,17.5624578,13.439111961435998
11.98492656,15.83928967,6.370591164,-3.375674486,17.4029511,13.446932307717349
11.9874326,15.60000706,6.329913139,-3.59102869,17.21404972,13.454535248595489
11.98993864,15.31017685,6.164808273,-3.909573078,16.96146037,13.461811335565406
11.99244468,14.99910927,5.889334679,-4.26879549,16.66973775,13.468685283519083
11.99495078,14.64945889,5.525625706,-4.584648132,16.31435514,13.47508644444011
11.99745682,14.28784275,5.135296345,-4.80508709,15.92490443,13.480935840554547
11.99996286,13.86670589,4.673182487,-4.943870544,15.44558263,13.486152284311618
12.0024689,13.43091393,4.187140465,-5.006083965,14.93259759,13.49069797018219
12.00497494,12.99272823,3.665505171,-5.053940296,14.41489603,13.494603986272564
12.00748099,12.52822113,3.148356438,-5.106582642,13.89048808,13.497926239445803
12.00998703,12.03978634,2.62402916,-5.104189873,13.33771863,13.500706974812962
12.01249307,11.57079315,2.114058733,-5.070690155,12.80876251,13.503018094653209
12.01499911,11.07757282,1.616052628,-5.034798145,12.27491092,13.50491531340263
12.01750515,10.61306572,1.165902853,-4.984548569,11.78313277,13.506445854762744
12.0200112,10.17488003,0.7588238716,-4.929513931,11.33155351,13.507663301281937
12.02251724,9.782157898,0.385543555,-4.864907742,10.93190671,13.508602379318488
12.02502333,9.432806015,0.08614161611,-4.778766155,10.57458537,13.509303162444654
12.02752937,9.147761345,-0.1507478207,-4.694717884,10.28322121,13.509835868580257
12.03003541,8.944371223,-0.3017947674,-4.620540619,10.07185446,13.51026554845368
12.03254146,8.800801277,-0.3831507266,-4.560719967,9.91973156,13.510662116186687
12.0350475,8.752944946,-0.399900496,-4.517649174,9.858149912,13.511078645553276
12.03755354,8.748159409,-0.347258389,-4.498506546,9.843141905,13.511528507857163
12.04005958,8.800801277,-0.2225325108,-4.476971149,9.876583139,13.512056300583364
12.04256562,8.927620888,-0.05503492057,-4.450650215,9.975656915,13.512748939898978
12.04507166,9.073583603,0.1435693651,-4.407579422,10.08847302,13.513607838535242
12.0475777,9.226723671,0.3281157911,-4.390829563,10.22347661,13.514644757214787
12.0500838,9.370592117,0.5099703074,-4.345366001,10.34167646,13.515830063027265
12.05258984,9.523733139,0.6415755749,-4.259224415,10.45246883,13.517147056494125
12.05509588,9.643374443,0.7444669604,-4.144069672,10.52246241,13.518565524945766
12.05760192,9.760622978,0.8282157183,-4.03399992,10.59381223,13.520043609400428
12.06010796,9.880562782,0.902692318,-3.947858334,10.67829386,13.521580297758723
12.06261401,9.978668213,0.9218349457,-3.868895054,10.74206442,13.523118607775082
12.06512005,10.07198906,0.9290133715,-3.770789385,10.79476179,13.524641940875023
12.06762609,10.11027431,0.9098708034,-3.626920938,10.77961349,13.526105080377919
12.07013213,10.14138031,0.8452646136,-3.478565931,10.75464959,13.527474952438352
12.07263817,10.16291618,0.7612167001,-3.318246841,10.71797921,13.528737570413094
12.07514422,10.13898754,0.6870391965,-3.19382,10.65230385,13.529882850898657
12.07765031,10.11984539,0.5769693851,-3.078665495,10.59350488,13.530890023297403
12.08015635,10.09113121,0.4597210586,-3.021237612,10.54372559,13.531784986504428
12.08266239,10.06241703,0.3544368446,-2.985345364,10.50191168,13.532632274017695
12.08516843,10.03131104,0.2560320199,-3.002095222,10.47403118,13.533494555257677
12.08767448,10.01216793,0.1722832322,-3.035594702,10.46365249,13.534392538388696
12.09018052,9.969097137,0.1028913707,-3.052344322,10.4264227,13.53537300859146
12.09268656,9.937990189,0.04067798331,-3.057130098,10.3976607,13.536428709779027
12.0951926,9.899705887,-0.04785645381,-3.085843801,10.36961421,13.537535413121697
12.09769864,9.851848602,-0.1363908947,-3.114856958,10.33343395,13.538648331449943
12.10020468,9.784550667,-0.2201396823,-3.083451033,10.2612652,13.539692065525253
12.10271078,9.719944954,-0.323330164,-2.954238653,10.1641231,13.54064666969831
12.10521677,9.62901783,-0.4381856322,-2.781955481,10.03241084,13.541446674680511
12.10772281,9.502198219,-0.5434698462,-2.657528639,9.881780656,13.542017383686172
12.1102289,9.387342453,-0.6463612318,-2.619243383,9.767313708,13.542396949640409
12.11273495,9.26530838,-0.742074132,-2.580958366,9.646655352,13.542594473794436
12.11524099,9.169296265,-0.8258228898,-2.530709028,9.547903729,13.542607775085303
12.11774703,9.123832703,-0.8835497499,-2.516052961,9.505551318,13.542517911942053
12.12025307,9.061619759,-0.902692318,-2.458625317,9.432531183,13.54227539994735
12.12275911,9.035298347,-0.9314061999,-2.42273283,9.400732317,13.541905405403272
12.12526515,9.020941734,-0.9744769931,-2.382055044,9.380894489,13.541426370948642
12.12777125,9.023334503,-0.9625129104,-2.34137702,9.371715052,13.540861291461173
12.13027729,9.044869423,-0.9481559992,-2.303091764,9.381518766,13.540228738182384
12.13278333,9.090332985,-0.926620543,-2.291127682,9.420299648,13.539587870735417
12.13528937,9.121439934,-0.9074779749,-2.27677083,9.444991697,13.538898149014308
12.13779541,9.150154114,-0.8596215248,-2.257628202,9.463675532,13.538134714042208
12.14030146,9.202795982,-0.8282157183,-2.224128723,9.503901501,13.53731310546824
12.1428075,9.241081238,-0.8114659786,-2.188236237,9.531234826,13.536388255199805
12.14531354,9.25783062,-0.7851449251,-2.178664923,9.543084469,13.535354577532177
12.14781958,9.301200867,-0.7755736113,-2.219342947,9.593713312,13.534212104019845
12.15032562,9.358628273,-0.742074132,-2.214557409,9.645665435,13.532940238463489
12.15283172,9.451948166,-0.7037889361,-2.228914261,9.736667899,13.531589597854186
12.15533776,9.566803932,-0.660718143,-2.195414782,9.837689363,13.530208737378535
12.1578438,9.669695854,-0.608076036,-2.16670084,9.928109936,13.528752359977195
12.16034984,9.707980156,-0.608076036,-2.21216464,9.975385084,13.52715787556712
12.16285588,9.72712326,-0.5458626747,-2.255235434,10.00004899,13.525409323422517
12.16536192,9.791728973,-0.4597210586,-2.283949137,10.06507444,13.523564495768463
12.16786797,9.827920914,-0.3903291821,-2.159522533,10.06995154,13.521544639679286
12.17037401,9.818050385,-0.3065803945,-1.941476464,10.01286351,13.519295226383385
12.17288005,9.684052467,-0.2225325108,-1.668694735,9.82928965,13.516723936174166
12.17538609,9.526125908,-0.1292124242,-1.446162224,9.636138015,13.513840389556126
12.17789213,9.358628273,-0.07417750359,-1.338186026,9.454108488,13.51066098257664
12.18039823,9.159725189,0.02153540403,-1.180259824,9.235477387,13.50717747132559
12.18290427,9.064012527,0.2321037948,-1.012762189,9.12337013,13.503576933442996
12.18541031,9.104690552,0.5075774789,-0.8691928387,9.160159449,13.50006084987162
12.18791635,9.171689034,0.8018946648,-0.7348956466,9.235961585,13.496800008649982
12.19042239,9.301200867,1.12283206,-0.632004261,9.390022299,13.493945257878893
12.19292843,9.408877373,1.388435364,-0.5650052428,9.52753678,13.491484279131825
12.19543448,9.451948166,1.599302888,-0.5171487927,9.600236285,13.489278092740616
12.19794052,9.444769859,1.824228168,-0.4429712892,9.629522816,13.487183056446014
12.20044656,9.449555397,2.063809633,-0.4214358926,9.681477966,13.485110694902778
12.2029526,9.320343018,2.257628202,-0.4310071766,9.599554482,13.48281050641642
12.2054587,9.188439369,2.494517565,-0.5291129351,9.535722124,13.480236077454789
12.20796474,8.994620323,2.774776936,-0.6750751138,9.437070955,13.47724758427847
12.21047078,8.913264275,3.119642496,-0.9601200819,9.492116724,13.473971385370442
12.21297682,8.705088615,3.586242914,-1.127617717,9.482153118,13.470211782490424
12.21548286,8.360222816,4.045963764,-1.299900889,9.378320246,13.465842192780322
12.2179889,7.986643791,4.500899315,-1.482054472,9.286606439,13.46094371816011
12.22049494,7.462316513,5.030012131,-1.537089467,9.129613015,13.455538214013135
12.22300099,6.830312252,5.528018475,-1.613659739,8.933982957,13.44962283033907
12.22550703,5.963811398,6.076273918,-1.462911963,8.638765104,13.443119434924034
12.22801307,5.140082359,6.655636311,-1.225723386,8.498255067,13.4361078422741
12.23051916,4.316651821,7.256533623,-1.01036942,8.503623318,13.428670597116351
12.2330252,3.356531858,7.898109436,-0.6415755749,8.605699158,13.420825327601221
12.23553125,2.482553482,8.563612938,-0.2201396823,8.91891248,13.412699247985511
12.23803729,1.529910922,9.1860466,0.2464607358,9.315837186,13.404300460088926
12.24054333,0.6224330068,9.77737236,0.6487540603,9.818620827,13.39569705808175
12.24304937,-0.4645066857,10.25862885,1.173081279,10.33592531,13.386885074636421
12.24555541,-1.553839207,10.6226368,1.577767372,10.85099897,13.37784919973052
12.24806146,-2.59052968,10.86909771,2.032702923,11.35693666,13.368585905938092
12.2505675,-3.524029493,11.05364418,2.635993242,11.89749108,13.359130413610314
12.25307354,-4.496113777,11.06800079,3.44985199,12.43451484,13.349512752467087
12.25557958,-5.475376606,10.86431217,4.433900356,12.94884166,13.339853369882785
12.25808567,-6.32752037,10.51017475,5.377270699,13.39463801,13.330407346535429
12.26059172,-6.921239376,10.08156013,6.097809315,13.66472421,13.321330781044852
12.26309776,-7.378567696,9.595518112,6.59342289,13.7837025,13.312732924001903
12.2656038,-7.649255753,9.05922699,6.832705021,13.68453745,13.304613447899978
12.26810984,-7.800003529,8.38175869,6.794419765,13.31383017,13.296893946883706
12.27061588,-7.955537319,7.577471256,6.667600155,12.85167446,13.289305083949717
12.27312192,-7.97467947,6.717849731,6.212665081,12.13763672,13.281234939291082
12.27562796,-7.898109436,5.918347836,5.662016392,11.37828649,13.272462450829156
12.27813401,-7.701898098,5.288437366,4.953442097,10.57465804,13.262968672319701
12.2806401,-7.649255753,4.829015255,4.340580463,10.03350092,13.252985980960053
12.28314614,-7.68275547,4.565505505,3.885644913,9.745091509,13.242597887837212
12.28565218,-7.831110477,4.601397991,3.701397419,9.808134259,13.231959693583148
12.28815823,-8.159226418,4.874478817,3.92392993,10.28254568,13.221350488860862
12.29066427,-8.697610855,5.391627789,4.390829563,11.13541508,13.211653356095432
12.29317031,-9.25783062,6.102594852,4.862514496,12.10756536,13.203483054745364
12.29567635,-9.791728973,7.009773731,5.321936607,13.16578495,13.1969305642354
12.29818239,-10.48385334,7.977072716,5.681159019,14.34644338,13.191889594672555
12.30068843,-11.17567825,8.906085968,5.726622581,15.39507577,13.187904393682892
12.30319448,-11.8722887,9.703194618,5.408377171,16.25895964,13.184869948770114
12.30570057,-12.56411362,10.28255749,4.821836948,16.9362939,13.182925804046677
12.30820661,-13.14826107,10.59392357,3.878466368,17.32485172,13.181606453476729
12.31071265,-13.64866066,10.60588741,2.947060108,17.53442183,13.180493509004197
12.3132187,-13.67019558,10.37348461,2.011167526,17.27796935,13.179108665336784
12.31572474,-13.36870003,9.937990189,1.304686546,16.70891967,13.177254555936207
12.31823078,-12.87308693,9.325128555,0.9457631707,15.92384557,13.174838747453341
12.32073682,-12.11426258,8.604290962,0.789930582,14.87995871,13.171601312345862
12.32324286,-11.08235836,7.869395256,0.7253243923,13.61147104,13.167249195616082
12.3257489,-9.832706451,7.144071102,0.7277171612,12.17577268,13.16140142269049
12.328255,-8.458329201,6.416054726,0.7301099896,10.64152958,13.15378560716135
12.33076104,-7.09860754,5.776872158,0.684646368,9.177756893,13.144342306636101
12.33326708,-5.824728489,5.26690197,0.6296114326,7.87807901,13.133084445406245
12.33577312,-4.661218643,5.398806095,0.4286143482,7.145472465,13.12041961711552
12.33827916,-3.492922783,6.119344711,-0.09571290761,7.04670492,13.106911799992934
12.34078521,-2.336591244,6.890132904,-0.6726822853,7.306578648,13.092908678060006
12.34329125,-1.149153113,7.613363266,-1.323829174,7.812578114,13.078783286206564
12.34579729,0.2850449979,8.365009308,-1.417448282,8.489039463,13.064961321349216
12.34830333,1.999203324,9.296415329,-0.9409775138,9.555395888,13.052142631380065
12.35080942,3.87368083,10.44556808,-0.4118646085,11.14831504,13.040968436349319
12.35331547,5.719444275,11.80768204,0.08135596663,13.12021405,13.031669158592937
12.35582151,7.323532581,13.35195065,0.7444669604,15.2467356,13.024157688172174
12.35832755,8.482256889,15.05653763,2.200200319,17.42093249,13.018383497349168
12.36083359,9.12861824,16.93580055,4.77637291,19.82338895,13.014501072359066
12.36333963,9.327521324,19.01396751,8.46072197,22.8060832,13.013173154421489
12.36584567,9.068798065,21.13998985,12.71037483,26.28109392,13.015094848256867
12.36835172,8.219046593,23.00489616,16.30140305,29.36858382,13.020242633976604
12.37085776,6.746563435,24.09422874,17.59173203,30.58622259,13.027131042891181
12.3733638,4.756931305,23.94348145,15.64547062,28.99481764,13.0332329956592
12.37586989,2.552244425,22.55953217,10.91456127,25.19075408,13.036428951389079
12.37837593,0.3161516786,20.46700859,5.23818779,21.12905591,13.036446866247156
12.38088198,-1.66151619,18.17348862,0.4932205677,18.25594673,13.034299264484119
12.38338802,-3.382853031,16.1195488,-2.209771633,16.61826221,13.031059173198154
12.38589406,-5.307579517,14.53699589,-2.714956284,15.71195842,13.027307170344226
12.3884001,-7.524529934,13.3782711,-1.58016026,15.43028175,13.023583092344845
12.39090614,-9.746265411,12.66730404,0.2850449979,15.98535366,13.020732596858917
12.39341218,-11.40299606,12.31525993,1.814656854,16.88155579,13.019145812997666
12.39591823,-12.27218914,12.24347496,2.633600473,17.53411409,13.018630527018605
12.39842432,-12.41575813,12.29611778,2.801098108,17.69722332,13.018776359071001
12.40093036,-11.89861012,12.22194004,2.513660192,17.24155528,13.019002288414923
12.4034364,-10.59631634,11.83878899,2.07098794,16.02272872,13.018556130564608
12.40594244,-8.305188179,11.1876421,1.51555407,14.01557671,13.016640362838936
12.40844849,-5.23818779,10.33519936,1.043868899,11.63377064,13.012849535918523
12.41095453,-2.200200319,9.408877373,0.6702894568,9.685924985,13.007627229377784
12.41346057,0.4357928336,8.475078583,0.1028913707,8.486899258,13.001730699727583
12.41596661,2.67188549,7.618149281,-0.8042874932,8.11307888,12.99594254623843
12.41847265,4.52482748,6.916453838,-1.927119493,8.486765401,12.991035817305328
12.4209787,6.109773636,6.401698112,-2.939881802,9.324911668,12.987506887927289
12.42348479,7.462316513,6.042774677,-3.61017108,10.25839309,12.985489799906011
12.42599083,8.690432549,5.889334679,-3.847359657,11.18078965,12.984960426320407
12.42849687,9.786943436,5.874977589,-3.727718592,12.00814346,12.98576753815166
12.43100291,10.82363415,6.033203125,-3.382853031,12.84501034,12.987820463641356
12.43350896,11.74786186,6.349055767,-3.045166016,13.69656174,12.991047534291132
12.436015,12.50907898,6.875775814,-3.117249727,14.61063297,12.995437217033421
12.43852104,13.14108276,7.471887589,-3.907180309,15.6135588,13.001000741918292
12.44102708,13.69890976,7.945965767,-5.312365532,16.70388362,13.007763768277833
12.44353312,14.20170116,8.187939644,-7.077072144,17.85540875,13.015677893168352
12.44603922,14.64945889,8.288438797,-8.738588333,18.96490942,13.02464150907995
12.44854526,15.05653763,8.336295128,-9.657731056,19.73486536,13.034266732956674
12.4510513,15.36999702,8.475078583,-9.351449966,19.88751825,13.043934817340885
12.45355734,15.59282875,8.757730484,-7.79761076,19.50991761,13.053036046302568
12.45606338,15.71964836,9.109476089,-5.456233978,18.96998652,13.061408694738386
12.45856942,15.68375587,9.411270142,-3.057130098,18.54449375,13.06913208168757
12.46107546,15.41067505,9.645767212,-1.39561379,18.23396469,13.076323603088676
12.46358151,14.9656105,9.767801285,-0.8090731502,17.88949522,13.08296200564918
12.4660876,14.28784275,9.782157898,-1.063011408,17.34828686,13.088891006325081
12.46859364,13.48594856,9.698409081,-1.702194214,16.69812602,13.094040063832956
12.47109968,12.55454254,9.573982239,-2.283949137,15.95287115,13.098389035398013
12.47360573,11.56361485,9.454340935,-2.669492722,15.17326406,13.101930419397597
12.47611177,10.53410244,9.399306297,-2.825026274,14.39774449,13.10467906138498
12.47861781,9.597910881,9.418449402,-2.796312332,13.7348624,13.106770340636231
12.48112385,8.800801277,9.511769295,-2.662314177,13.22935278,13.108372152600351
12.48362989,8.106285095,9.612267494,-2.465803623,12.81357608,13.1096241650171
12.48613593,7.541279793,9.707980156,-2.248056889,12.49678116,13.110619729968302
12.48864203,7.024429798,9.820742607,-2.00638175,12.23990062,13.111471756873135
12.49114807,6.46421051,9.928419113,-1.807478428,11.98442747,13.112156079935108
12.49365411,5.827121258,10.00498962,-1.730908036,11.70688695,13.112677911964413
12.49616015,5.111368179,10.06959629,-1.862513304,11.44516535,13.113064339705057
12.4986662,4.374079704,10.11027431,-2.145165443,11.22283185,13.113338351370718
12.50117224,3.62452817,10.11505985,-2.48733902,11.02898434,13.113513385355208
12.50367828,2.918346405,10.12463093,-2.75084877,10.88999844,13.113689216076569
12.50618432,2.34137702,10.13898754,-2.822633505,10.78185395,13.11392191763597
12.50869041,1.929512382,10.17009449,-2.743670225,10.70894795,13.11424157425489
12.51119646,1.683051586,10.22273636,-2.571387053,10.67469122,13.11466101228798
12.5137025,1.551446438,10.30648518,-2.37248373,10.68921427,13.115207821682775
12.51620854,1.498804331,10.36869907,-2.228914261,10.71094738,13.115908180119488
12.51871458,1.434198022,10.38814068,-2.18105793,10.71108792,13.116700396844623
12.52122062,1.338186026,10.33041382,-2.233700037,10.65352558,13.117487428340553
12.52372666,1.228116274,10.18923664,-2.338984251,10.52614175,13.118167191523746
12.5262327,1.094118118,10.00738239,-2.51844573,10.37725232,13.118698111262571
12.52873875,0.9744769931,9.791728973,-2.667099953,10.19514511,13.11909781301168
12.53124484,0.8763712645,9.583553314,-2.731706142,10.00373626,13.119414277589232
12.53375088,0.8330013752,9.41366291,-2.681456804,9.82349995,13.119655733685331
12.53625692,0.9218349457,9.337093353,-2.48733902,9.706592984,13.119811195499507
12.53876296,1.113260746,9.327521324,-2.24566412,9.658416582,13.120007833563939
12.54126901,1.400399446,9.401699066,-1.97527504,9.708489863,13.120336896511487
12.54377505,1.80508554,9.49262619,-1.728515267,9.816111798,13.120829529109061
12.54628109,2.257628202,9.588339806,-1.534696579,9.969375052,13.12150393119981
12.54878713,2.772384167,9.631410599,-1.36211431,10.11462009,13.122355944986145
12.55129317,3.325425386,9.638588905,-1.177866936,10.26392813,13.123376435803571
12.55379927,3.885644913,9.590732574,-0.9768698215,10.3939724,13.124521422295729
12.55630531,4.438685894,9.535696983,-0.7253243923,10.54312785,13.125713415326361
12.55881135,4.960620403,9.437591553,-0.4956133962,10.67340254,13.126865454372751
12.56131739,5.439484119,9.375378609,-0.3376871049,10.84434157,13.1280030896165
12.56382343,5.889334679,9.346664429,-0.2273181528,11.04970916,13.129192089740389
12.56632948,6.272485256,9.370592117,-0.1579262912,11.27727842,13.130532877952055
12.56883552,6.591030121,9.411270142,-0.08614161611,11.49004369,13.13210643145819
12.57134156,6.837490559,9.495018959,-0.01674975827,11.70072403,13.133940002471846
12.57384765,7.012166977,9.57158947,0.09092725813,11.86566806,13.135996021885386
12.5763537,7.108178616,9.645767212,0.1890329868,11.98343698,13.138172390968114
12.57885974,7.11296463,9.707980156,0.2656033039,12.03784406,13.1403812990362
12.58136578,7.024429798,9.770194054,0.3113660514,12.03728602,13.142550636549302
12.58387182,6.842276573,9.810872078,0.2703889608,11.9642413,13.144574978444219
12.58637786,6.581458569,9.823135376,0.1507478207,11.82507126,13.146414969243484
12.5888839,6.227021694,9.825528145,-0.04785645381,11.6326735,13.147962781935124
12.59138995,5.798407555,9.818050385,-0.2850449979,11.40600255,13.149310651258842
12.59389604,5.334199905,9.784550667,-0.5171487927,11.15609982,13.150446339885264
12.59640208,4.809872627,9.767801285,-0.7444669604,10.91325101,13.151357042103104
12.59890812,4.273581028,9.794121742,-0.9768698215,10.73045154,13.15205353718085
12.60141416,3.732504129,9.796515465,-1.168295622,10.54837509,13.15264845504391
12.60392021,3.220141172,9.77737236,-1.335793257,10.38030168,13.153081516384127
12.60642625,2.769991398,9.758230209,-1.48444736,10.25180438,13.153382031990192
12.60893229,2.40598321,9.715159416,-1.616052628,10.13827913,13.153595692685021
12.61143833,2.260020971,9.590732574,-1.821835399,10.02042566,13.15371061496865
12.61394437,2.123630047,9.449555397,-1.812264085,9.853334608,13.15403346920502
12.61645047,1.905584097,9.325128555,-1.721336842,9.672242441,13.15450023723016
12.61895651,1.702194214,9.20758152,-1.671087503,9.511548561,13.155065350544678
12.62146255,1.53230381,9.135796547,-1.680658817,9.414634755,13.156023729831356
12.62396859,1.352542996,9.052047729,-1.702194214,9.309479351,13.157422662400219
12.62647463,1.192223907,8.989834785,-1.663909078,9.219930625,13.15903709821542
12.62898067,1.043868899,8.98026371,-1.663909078,9.192572654,13.160883616157005
12.63148672,0.9577272534,9.00179863,-1.651944876,9.202094432,13.162892896746275
12.63399276,0.9361918569,9.032905579,-1.618445396,9.224380949,13.164844046197938
12.63649885,0.8955138922,9.116654396,-1.508375525,9.28388546,13.16648754810335
12.63900489,0.8787640929,9.214759827,-1.350150228,9.354513917,13.167612081018861
12.64151093,0.9768698215,9.317950249,-1.185045362,9.443664754,13.16807724003735
12.64401698,1.060618639,9.406484604,-0.9744769931,9.516116325,13.167893163065994
12.64652302,1.173081279,9.454340935,-0.8162516356,9.561744032,13.167182802812732
12.64902906,1.295115232,9.47109127,-0.6535396576,9.581545147,13.166060262573012
12.6515351,1.410269856,9.451948166,-0.5147559643,9.57043149,13.164600461452341
12.65404114,1.541875124,9.418449402,-0.4046861231,9.55239964,13.162846411058995
12.65654718,1.625623941,9.370592117,-0.318544507,9.51588779,13.16082632818644
12.65905328,1.663909078,9.320343018,-0.2321037948,9.470546951,13.158606796312398
12.66155932,1.649552107,9.245866776,-0.1794617027,9.393576587,13.15624770373491
12.66406536,1.594517231,9.202795982,-0.1004985496,9.340451758,13.153785443535712
12.6665714,1.479661703,9.162117958,0.004785645287,9.280831166,13.151309607436144
12.66907745,1.366899967,9.142974854,0.08374879509,9.244967201,13.14881071591441
12.67158349,1.225723386,9.135796547,0.1411765367,9.218736745,13.146320664919758
12.67408953,1.094118118,9.123832703,0.1148554832,9.189918902,13.14385058699267
12.67659557,0.9529415965,9.109476089,0.05503492057,9.159349385,13.141395515313343
12.67910166,0.8691928387,9.114261627,-0.05742774159,9.155793747,13.138992028848593
12.68160771,0.7325028181,9.150154114,-0.08135596663,9.179787551,13.136719963928655
12.68411375,0.4740779996,9.219545364,-0.04785645381,9.231850135,13.134701392742446
12.68661979,0.1579262912,9.322735786,-0.02632104978,9.32411047,13.133017140750983
12.68912583,-0.08374879509,9.456734657,-0.1268195957,9.457955775,13.131712290785094
12.69163187,-0.2898306549,9.590732574,-0.1890329868,9.596972783,13.130740481092875
12.69413791,-0.5099703074,9.715159416,-0.1339980662,9.729457728,13.129874675110466
12.69664396,-0.7923234105,9.839884758,0.007178467698,9.871735408,13.12874235948497
12.69915005,-0.9816554785,9.926026344,0.1292124242,9.975286578,13.126860086236709
12.70165609,-1.151545882,9.945169449,0.2826521695,10.0156051,13.123833436773385
12.70416213,-1.321436286,9.926026344,0.4980062246,10.02597641,13.119541653320296
12.70666817,-1.46769762,9.868598938,0.6439684033,9.997903611,13.114227108640494
12.70917422,-1.568196177,9.758230209,0.7707880139,9.913445931,13.108192067652181
12.71168026,-1.632802367,9.614660263,0.8401798606,9.788444092,13.10173537717011
12.7141863,-1.604088426,9.447162628,0.8306085467,9.618310244,13.09505806175327
12.71669234,-1.465304732,9.277272224,0.7851449251,9.425038485,13.088541997926967
12.71919838,-1.302293777,9.131011009,0.7588238716,9.254574264,13.082498837466106
12.72170448,-1.041476011,9.00179863,0.7492526174,9.092768024,13.07735844662663
12.72421052,-0.7229315639,8.889336586,0.7396813035,8.949305192,13.073408819402564
12.72671656,-0.3975076675,8.805587769,0.7803592682,8.849030957,13.070860744785097
12.7292226,-0.1100698411,8.74576664,0.8859425783,8.791214008,13.069394941947213
12.73172864,0.2081755698,8.714659691,0.9984052777,8.774134926,13.068633725323716
12.73423468,0.5315057039,8.685647011,1.096511006,8.770706853,13.068307656101423
12.73674073,0.794716239,8.709874153,1.173081279,8.824375409,13.067971496339446
12.73924677,1.039083242,8.752944946,1.173081279,8.892123419,13.067156615262123
12.74175286,1.290329576,8.812766075,1.144367456,8.979942827,13.065528628424477
12.7442589,1.489233017,8.908478737,1.067797065,9.094998568,13.06281256155018
12.74676494,1.632802367,9.040083885,0.9696913958,9.237394742,13.058901173945475
12.74927099,1.793121457,9.195617676,0.8138588071,9.404096722,13.053576861804087
12.75177703,1.915155411,9.380164146,0.6990033388,9.599161699,13.046400563238253
12.75428307,1.864906192,9.597910881,0.6296114326,9.797661912,13.036568703717089
12.75678911,1.742872238,9.808479309,0.6391827464,9.982606102,13.023224524788478
12.75929515,1.630409479,10.00259686,0.6415755749,10.15489036,13.005984319360532
12.76180125,1.429412484,10.17248726,0.6487540603,10.2928907,12.985534795853415
12.76430729,1.168295622,10.28973579,0.660718143,10.37690348,12.964069152544559
12.76681333,0.8691928387,10.38066292,0.6655037999,10.43822562,12.944774415689444
12.76931937,0.5913262963,10.40489006,0.6487540603,10.4418526,12.929801725901946
12.77182541,0.3281157911,10.40010452,0.6391827464,10.42489274,12.918957864125183
12.77433146,0.03349951655,10.37109184,0.6487540603,10.39141713,12.910371970441977
12.7768375,-0.1770688742,10.31605625,0.660718143,10.33870971,12.902779952809041
12.77934354,-0.4645066857,10.24427223,0.7612167001,10.28301176,12.896046148407672
12.78184963,-0.8282157183,10.20837975,0.8787640929,10.27955177,12.890124216368609
12.78435567,-1.208973646,10.15334511,0.9290133715,10.26718559,12.884342179983497
12.78686172,-1.551446438,10.13180923,0.9361918569,10.29257012,12.878032256962257
12.78936776,-1.785943031,10.10548782,0.8596215248,10.29803019,12.870910803570029
12.7918738,-2.07098794,10.15573788,0.8691928387,10.4011297,12.863712268009564
12.79437984,-2.360519648,10.2347002,0.8979067206,10.5416971,12.857199765341953
12.79688588,-2.537887573,10.33998489,0.9960124493,10.69337186,12.852266066012946
12.79939198,-2.691028118,10.4790678,1.168295622,10.88197634,12.849421642513594
12.80189802,-2.851347208,10.64656544,1.287936807,11.0967706,12.848444972355
12.80440406,-2.985345364,10.80927753,1.340578914,11.29380005,12.848741517819457
12.8069101,-3.095714331,10.99621677,1.287936807,11.49604331,12.849845797309806
12.80941614,-3.189034462,11.15892887,1.252044439,11.67301373,12.851543410089267
12.81192218,-3.334996462,11.27139091,1.297508121,11.82581844,12.853559935171253
12.81442823,-3.490530014,11.38385391,1.424626827,11.99189273,12.855389339678695
12.81693427,-3.612564087,11.4699955,1.561017632,12.1263429,12.856619304243338
12.81944036,-3.718147278,11.50618649,1.632802367,12.20176177,12.856812082602314
12.8219464,-3.782753468,11.52293682,1.699801445,12.24649426,12.855587717280404
12.82445244,-3.789932013,11.50618649,1.790728688,12.24592264,12.852797219034262
12.82695849,-3.68225503,11.47956657,1.943869352,12.21139136,12.848679887519756
12.82946453,-3.492922783,11.46281719,2.171486616,12.17834314,12.843956262195407
12.83197057,-3.272783279,11.42931747,2.508874655,12.15050865,12.839310863771058
12.83447661,-3.00688076,11.36471081,2.803490877,12.08542696,12.835115022236561
12.83698265,-2.68624258,11.21635628,2.970988512,11.91005122,12.831088525217499
12.83948875,-2.367697954,11.04646587,2.920739174,11.66880967,12.826491831725031
12.84199479,-2.073380709,10.86431217,2.635993242,11.37016477,12.820625768966142
12.84450083,-1.817049742,10.72313595,2.185843468,11.09347673,12.81323229827235
12.84700687,-1.647159338,10.65613651,1.663909078,10.91031497,12.804427489753847
12.84951291,-1.537089467,10.67288589,1.180259824,10.84740294,12.794495185745415
12.85201896,-1.513161182,10.79731274,0.8353942037,10.93478407,12.783918402724163
12.854525,-1.565803289,10.96989536,0.6702894568,11.1013347,12.773158618405663
12.85703109,-1.695015788,11.1876421,0.660718143,11.33459142,12.762616729422637
12.85953713,-1.907976985,11.4197464,0.7013961077,11.59926465,12.752569001079436
12.86204317,-2.11645174,11.60668564,0.7755736113,11.82353728,12.743187877324301
12.86454922,-2.274377823,11.75025463,0.8620143533,11.99934778,12.73467135679061
12.86705526,-2.420340061,11.88903809,0.9840483069,12.17274101,12.727225634034324
12.8695613,-2.513660192,12.00150108,1.189831018,12.31950541,12.720979921057355
12.87206734,-2.54506588,12.07358456,1.424626827,12.42088427,12.71596078632392
12.87457338,-2.513660192,12.10469151,1.623231053,12.46903858,12.7121200416278
12.87707948,-2.410768747,12.16929817,1.771586061,12.53164559,12.709435439101203
12.87958552,-2.271985054,12.23151112,1.773978829,12.56657396,12.707776867189311
12.88209156,-2.16670084,12.34875965,1.561017632,12.63420886,12.707050554666033
12.8845976,-2.044667006,12.55932808,1.125224829,12.77433035,12.707159478007044
12.88710364,-1.939083695,12.87787247,0.6439684033,13.03895472,12.708107819688967
12.88960968,-1.848156333,13.34237862,0.3137588799,13.47342546,12.709965141184925
12.89211573,-1.809871197,13.88106346,0.3161516786,14.00212514,12.712725040795123
12.89462177,-1.793121457,14.5011034,0.6367899179,14.62541575,12.716425011028928
12.89712786,-1.85294199,15.15703583,1.28315115,15.32369427,12.721084500243597
12.8996339,-2.047059774,15.77946854,2.137987137,16.05468997,12.726704693916274
12.90213994,-2.362912416,16.31097412,3.107678413,16.77166948,12.733237500726446
12.90464599,-2.781955481,16.72283936,4.096213341,17.44051594,12.740600251344397
12.90715203,-3.323032379,17.04347801,5.089832783,18.09500165,12.748744083850141
12.90965807,-3.92392993,17.2112751,6.033203125,18.65542164,12.75756081520776
12.91216411,-4.582255363,17.24477386,6.870990276,19.12040264,12.766999799442548
12.91467015,-5.269294739,17.16580963,7.579864025,19.49063431,12.777002900921506
12.91717625,-5.968596935,16.96212196,8.231010437,19.77592637,12.787468060953204
12.91968229,-6.646064758,16.69412613,8.709874153,19.96812289,12.798195499052405
12.92218833,-7.261319637,16.40190125,8.863015175,20.00755271,12.808927347208137
12.92469437,-7.821538925,16.10279846,8.654540062,19.88410554,12.81939106324667
12.92720041,-8.317152023,15.87278938,8.283653259,19.74181785,12.829502565640684
12.92970646,-8.678468704,15.74118423,7.876574039,19.62501258,12.83924707261838
12.9322125,-8.932407379,15.65743542,7.282855034,19.44178909,12.84850387131993
12.93471859,-8.941978455,15.70768452,6.026024818,19.05264566,12.857051421434765
12.93722463,-8.664112091,15.93500233,4.194318771,18.6167518,12.864843738672745
12.93973067,-8.192725182,16.26790428,2.91116786,18.44560527,12.872161600833927
12.94223672,-7.692326546,16.6151619,2.669492722,18.50301824,12.879304061974757
12.94474276,-7.256533623,16.92622948,2.571387053,18.59479916,12.886334410565713
12.9472488,-6.866204739,17.22323799,2.068595171,18.65646752,12.893282326119982
12.94975484,-6.46421051,17.49123383,1.357328653,18.69683447,12.90015660224775
12.95226093,-6.004489422,17.70449448,0.7205387354,18.70888008,12.906914217304308
12.95476698,-5.496912003,17.86481476,0.1292124242,18.69182559,12.913525149837977
12.95727302,-4.986941338,18.0083828,-0.9816554785,18.71189681,12.920018611284094
12.95977906,-4.52482748,18.06341743,-3.133999348,18.88340714,12.926556107863258
12.9622851,-4.053142548,18.06581116,-5.736194134,19.38312205,12.933533284179711
12.96479114,-3.691826344,17.92942047,-6.945167542,19.57879088,12.940673815515067
12.96729718,-3.272783279,17.72363663,-6.035595894,19.00702037,12.947285786712065
12.96980328,-2.743670225,17.54148293,-4.661218643,18.35642418,12.953372960581737
12.97230932,-2.059023857,17.38834381,-4.029214382,17.96743299,12.959273664631105
12.97481536,-1.335793257,17.30698776,-3.825824261,17.77506963,12.965241963232897
12.9773214,-0.6104688644,17.20888138,-3.557528973,17.58335244,12.971305168427996
12.97982745,0.1028913707,17.06262016,-3.461816072,17.41056472,12.977448300139237
12.98233349,0.8524430394,16.85205078,-3.691826344,17.27274895,12.983672870811917
12.98483953,1.632802367,16.51914978,-4.134498596,17.1067949,12.989960397926982
12.98734557,2.496910334,16.06212044,-4.670789719,16.91279252,12.996354353500937
12.98985166,3.631706476,15.5736866,-5.049154758,16.76970393,13.00287902609376
12.99235771,4.960620403,15.06371593,-5.147260666,16.67385933,13.009590530639686
12.99486375,6.339484692,14.53460312,-5.06111908,16.64507976,13.01652873076695
12.99736979,7.713861942,13.95284748,-5.073082924,16.73086337,13.023783406150425
12.99987583,9.135796547,13.32323647,-5.449055195,17.04885952,13.031556184768037
13.00238187,10.59870911,12.70080376,-6.238986015,17.67959268,13.040068530510808
13.00488791,11.87946701,12.05892849,-7.30439043,18.43620385,13.04936340842188
13.00739401,13.05494118,11.39103222,-8.317152023,19.21879606,13.059362146552884
13.00990005,14.17777348,10.73749256,-9.042476654,19.9516764,13.069932892910934
13.01240609,15.20010662,10.09352398,-9.57158947,20.6043149,13.080954171020617
13.01491213,16.18894005,9.435198784,-9.696016312,21.09780767,13.09225535509958
13.01741817,17.06979942,8.72423172,-9.085547447,21.21408598,13.103483081110333
13.01992422,17.83370781,7.979465485,-7.663612843,20.98675691,13.114386293358159
13.02243031,18.47289085,7.179963589,-5.843871117,20.66277821,13.124928133000486
13.02493635,19.04028893,6.296413898,-4.503292084,20.55376048,13.135381816133707
13.02744239,19.61725807,5.245366573,-4.091427803,20.71449894,13.146016179774042
13.02994843,20.20379829,3.964607954,-4.457828522,21.06617708,13.15701093115648
13.03245448,20.70180511,2.659921408,-4.876871586,21.43417349,13.168400837571005
13.03496052,21.00808525,1.747657895,-4.96779871,21.65809267,13.180045226816432
13.03746656,21.05145454,1.455733418,-4.642076015,21.60629001,13.191677055882822
13.03997265,20.74008942,1.733300924,-4.086641788,21.2098157,13.202946524316111
13.0424787,20.18465614,2.362912416,-3.514458179,20.62413913,13.21367154685088
13.04498474,19.52872276,3.105285645,-3.150749207,20.02351199,13.2238340341149
13.04749078,18.85125542,3.895216227,-3.018844843,19.48476237,13.233532491079337
13.04999682,18.24317932,4.65403986,-3.052344322,19.07329244,13.242896549193729
13.05250286,17.74038696,5.30279398,-3.179463148,18.78696195,13.252046289153517
13.0550089,17.36919975,5.877370834,-3.313461065,18.63361511,13.261126570352165
13.057515,17.07458496,6.325127602,-3.423531055,18.52752697,13.270173661432384
13.06002104,16.82573128,6.636493683,-3.538386583,18.43009661,13.279223525378319
13.06252708,16.63191223,6.780063152,-3.675076485,18.33291979,13.288225116402225
13.06503312,16.36840248,6.787241459,-3.868895054,18.13724332,13.297133228950644
13.06753916,16.03819275,6.648457527,-4.08424902,17.83554609,13.305780118241952
13.07004521,15.62632847,6.40648365,-4.292723656,17.425632,13.314063119951651
13.07255125,15.16182137,6.047560215,-4.469792843,16.92432745,13.32190039360025
13.07505734,14.63749409,5.642873764,-4.65403986,16.36332315,13.329237289077993
13.07756338,14.0988102,5.204688549,-4.793122768,15.7746397,13.336029848901756
13.08006942,13.53380489,4.752145767,-4.864907742,15.14642174,13.342212024951152
13.08257547,12.95922852,4.261617184,-4.922335148,14.50284,13.347738143175233
13.08508151,12.40140152,3.737289906,-5.003691196,13.88520872,13.352632219298789
13.08758755,11.88185978,3.234498024,-5.140082359,13.34395054,13.356968050756981
13.09009359,11.35035419,2.743670225,-5.25254488,12.80419831,13.360725422902815
13.09259968,10.84995556,2.267199516,-5.30279398,12.28744698,13.363935912717965
13.09510573,10.36391354,1.829013824,-5.274080276,11.77165741,13.36659880651544
13.09761177,9.933204651,1.417448282,-5.219045162,11.31000206,13.368767436039347
13.10011781,9.545269012,1.063011408,-5.120939732,10.8842169,13.370485592945434
13.10262385,9.195617676,0.7325028181,-4.998905659,10.49214004,13.37180106160714
13.10512989,8.874979019,0.4429712892,-4.884049892,10.13979386,13.372756711564694
13.10763593,8.618648529,0.2344966233,-4.783551693,9.859942086,13.373458977885695
13.11014203,8.408080101,0.09810572863,-4.685146809,9.625800556,13.37398596473454
13.11264807,8.257331848,-0.02153540403,-4.60379076,9.454040532,13.374373401005613
13.11515411,8.180761337,-0.06221338734,-4.53918457,9.355903117,13.374702612501006
13.11766015,8.183154106,-0.07896314561,-4.465006828,9.322367311,13.375007286302639
13.1201662,8.207082748,-0.07178468257,-4.383651257,9.304717009,13.375285071976206
13.12267224,8.326724052,0.004785645287,-4.342973232,9.39126045,13.375625209328945
13.12517833,8.47986412,0.06460621208,-4.299902439,9.507966683,13.375984729974324
13.12768437,8.63779068,0.1411765367,-4.28315258,9.642445471,13.37638578570834
13.13019041,8.805587769,0.1842473447,-4.208974838,9.76154661,13.376792200524019
13.13269646,8.918049812,0.2081755698,-4.110570431,9.822002789,13.377140085822685
13.1352025,8.999405861,0.1962114573,-4.024428368,9.860214423,13.377409850654379
13.13770854,9.044869423,0.1794617027,-3.95503664,9.873407933,13.377566631327985
13.14021458,9.078369141,0.1770688742,-3.880859137,9.874675047,13.377641568000607
13.14272062,9.085547447,0.1746760458,-3.789932013,9.845875725,13.377609733366818
13.14522672,9.095118523,0.1316052526,-3.694219112,9.81762475,13.377501762848446
13.14773276,9.090332985,0.1076770201,-3.598206997,9.777159184,13.377272533359896
13.1502388,9.114261627,0.0765703246,-3.528815269,9.773851095,13.376987800122253
13.15274484,9.147761345,0.04067798331,-3.4809587,9.78776102,13.376641210726099
13.15525088,9.190832138,0.03349951655,-3.478565931,9.827153125,13.376244748986386
13.15775692,9.224330902,0.02632104978,-3.433102369,9.842518238,13.375779582414065
13.16026302,9.260522842,0.02632104978,-3.303889751,9.832276624,13.375217534272917
13.16276906,9.279664993,0.0143569354,-3.122035265,9.790786113,13.37451890742602
13.1652751,9.317950249,0.009571290575,-2.973381281,9.780863187,13.373695698137494
13.16778114,9.31555748,0.01674975827,-2.856132984,9.743581854,13.372693133897368
13.17028718,9.31555748,0.02153540403,-2.765205622,9.717326642,13.371520771030788
13.17279323,9.291629791,0.01914258115,-2.68624258,9.672158488,13.370154071842169
13.17529927,9.274879456,0.002392822644,-2.612065077,9.635677382,13.368588811674146
13.17780536,9.253045082,-0.01674975827,-2.592922449,9.609493778,13.366835507348231
13.1803114,9.205188751,-0.08853443712,-2.585743904,9.561872716,13.364826253769252
13.18281745,9.138189316,-0.1746760458,-2.566601276,9.493390217,13.36255508822264
13.18532349,9.071190834,-0.2536391914,-2.523231506,9.418998525,13.360081650863801
13.18782953,8.958727837,-0.3424727321,-2.458625317,9.296285843,13.357320228982852
13.19033557,8.87258625,-0.4334000051,-2.449054003,9.214580177,13.354299073580734
13.19284166,8.74576664,-0.50518471,-2.496910334,9.10923745,13.351025070972042
13.19534771,8.652147293,-0.5650052428,-2.528316259,9.031681284,13.347575645505959
13.19785375,8.575576782,-0.6296114326,-2.520838737,8.960555543,13.343967341501651
13.20035979,8.484649658,-0.689432025,-2.508874655,8.874629478,13.340213739699493
13.20286583,8.369794846,-0.7325028181,-2.463410854,8.75547938,13.336299874376303
13.20537187,8.324331284,-0.7612167001,-2.432304144,8.70574785,13.332335440807817
13.20787791,8.235795975,-0.7971090674,-2.362912416,8.605060912,13.328294922039957
13.21038401,8.156833649,-0.8548358679,-2.34137702,8.52916912,13.324238834198411
13.21289005,8.094321251,-0.8668000102,-2.298306227,8.45881731,13.32022279906992
13.21539609,8.06799984,-0.8572286963,-2.164308071,8.397124024,13.316346652437394
13.21790213,8.087141991,-0.8162516356,-2.037488461,8.379707127,13.312646374238678
13.22040817,8.161619186,-0.7731808424,-1.958226204,8.428789132,13.309107783758249
13.22291422,8.235795975,-0.7229315639,-1.881655931,8.478891108,13.305644971677166
13.22542026,8.278866768,-0.6990033388,-1.778764486,8.496601893,13.302128060246817
13.22792635,8.343473434,-0.6367899179,-1.673480392,8.53343934,13.29848296110052
13.23043239,8.453543663,-0.5673980713,-1.544267893,8.612148649,13.294725228016055
13.23293843,8.606683731,-0.4836492836,-1.520339727,8.753305339,13.290889648743393
13.23544448,8.791230202,-0.3831507266,-1.572981834,8.939060621,13.2870048692755
13.23795052,8.963513374,-0.2512463629,-1.714158297,9.129404987,13.283080785693237
13.24045656,9.123832703,-0.1196411327,-1.869691849,9.31420339,13.279090985119431
13.24296265,9.2362957,0.03589234129,-1.886441588,9.427041338,13.27495027526373
13.2454687,9.267701149,0.1914258152,-1.807478428,9.444252575,13.270561198504408
13.24797474,9.279664993,0.3448655605,-1.7883358,9.456704478,13.26595959466005
13.25048078,9.286844254,0.4932205677,-1.848156333,9.481794374,13.261207078035246
13.25298682,9.34427166,0.6942176819,-1.970489502,9.574976758,13.256391848358351
13.25549286,9.396913528,0.9361918569,-2.054238319,9.664281356,13.251492822635667
13.2579989,9.480662346,1.204187989,-2.137987137,9.793059595,13.246530667644102
13.260505,9.605089188,1.462911963,-2.216950178,9.965576642,13.24144176444637
13.26301104,9.715159416,1.716551185,-2.21216464,10.11061535,13.236103091951684
13.26551708,9.844670296,1.941476464,-2.159522533,10.26403438,13.230427684883836
13.26802312,9.933204651,2.14995122,-2.133201361,10.38467106,13.22431748073363
13.27052916,9.969097137,2.360519648,-2.061416626,10.45009039,13.217675363822174
13.27303521,9.988240242,2.580958366,-1.864906192,10.4835187,13.210422594197793
13.27554125,10.05045319,2.851347208,-1.639980793,10.5750332,13.202553984882732
13.27804734,10.11745262,3.122035265,-1.412662625,10.68202076,13.19411449913572
13.28055338,10.09352398,3.425923824,-1.225723386,10.72933261,13.185077971563144
13.28305942,9.973882675,3.679862022,-1.101296663,10.687964,13.1754248912073
13.28556547,9.715159416,3.981357813,-0.926620543,10.54012135,13.165136136530712
