Time (s),Acceleration x (m/s^2),Acceleration y (m/s^2),Acceleration z (m/s^2),Absolute acceleration (m/s^2),magnitude
6.531811266,-39.3421936,4.951049328,-3.957429647,39.84949606,
6.534317359,-38.56661987,5.336592674,-4.077070713,39.14697811,
6.536823505,-37.37918091,5.55194664,-4.110570431,38.01215682,
6.539329599,-35.93540955,5.561518192,-4.024428368,36.58524522,
6.541835693,-34.39353561,5.446662426,-3.844966888,35.03377219,
6.544341839,-32.78705597,5.250152111,-3.651148319,33.40488019,
6.546847932,-31.09203911,5.020441055,-3.425923824,31.680541,
6.549354026,-29.36830902,4.807479858,-3.126821041,29.92300866,
6.55186012,-27.65654373,4.608576298,-2.753241539,28.17274793,
6.554366266,-25.9519558,4.424329281,-2.329412937,26.42924259,
6.556872359,-24.28326225,4.321437836,-1.862513304,24.73500771,
6.559378453,-22.65763855,4.247260094,-1.354935765,23.09206907,
6.561884599,-21.08016968,4.201497555,-0.8548358679,21.51178467,
6.564390693,-19.57658005,4.165605068,-0.3448655605,20.01783415,
6.566896786,-18.13041687,4.141676903,0.1004985496,18.59773114,
6.569402932,-16.77308846,4.120141506,0.4477569461,17.2775157,
6.571909026,-15.49711609,4.079463482,0.6966105103,16.04019624,
6.57441512,-14.31446362,4.012464523,0.8476574421,14.89034128,
6.576921266,-13.19641685,3.95503664,0.8596215248,13.80314029,
6.579427359,-12.12622738,3.871287823,0.7468597889,12.75108071,
6.581933453,-11.13021469,3.811467409,0.5362913609,11.77695085,
6.584439547,-10.20837975,3.718147278,0.2536391914,10.86738097,
6.586945693,-9.325128555,3.619742393,-0.1435693651,10.00405766,
6.589451786,-8.489435196,3.543172121,-0.5673980713,9.216643597,
6.59195788,-7.709076405,3.454637766,-1.05822587,8.513766681,
6.594464026,-6.959524632,3.390031576,-1.563410521,7.897566058,
6.59697012,-6.229414463,3.330210924,-2.056631088,7.357013034,
6.599476214,-5.539982796,3.325425386,-2.499303341,6.927942015,
6.601982307,-4.888835907,3.349353552,-2.927917719,6.609961264,
6.604488453,-4.225724697,3.411566973,-3.279961586,6.344579295,
6.606994547,-3.62452817,3.488137245,-3.581457376,6.17504193,
6.609500641,-3.035594702,3.600599766,-3.835395575,6.073665539,
6.612006786,-2.465803623,3.706183195,-4.04835701,6.017073696,
6.61451288,-1.907976985,3.840181351,-4.203890324,6.00500315,
6.617018974,-1.371685624,3.93828702,-4.352544308,6.027957204,
6.61952512,-0.8377870321,4.060320854,-4.462614059,6.091224573,
6.622031214,-0.347258389,4.172783375,-4.52482748,6.164963358,
6.624537307,0.1507478207,4.307080746,-4.563112736,6.276596792,
6.627043401,0.6248258352,4.448257446,-4.565505505,6.404782756,
6.629549547,1.053440213,4.570291042,-4.515256405,6.510363807,
6.632055641,1.479661703,4.687539577,-4.386044025,6.587853083,
6.634561734,1.872084618,4.809872627,-4.225724697,6.670556553,
6.63706788,2.252842426,4.907978535,-4.041178226,6.744973962,
6.639573974,2.602493763,5.008476734,-3.864109516,6.840259888,
6.642080068,2.937488794,5.087440014,-3.648755312,6.915511669,
6.644586161,3.232105255,5.204688549,-3.452244759,7.032302692,
6.647092307,3.521636724,5.281258583,-3.244069338,7.128646667,
6.649598401,3.758825302,5.367699623,-3.014059305,7.212871855,
6.652104495,3.993321896,5.432305813,-2.796312332,7.29903616,
6.654610641,4.165605068,5.475376606,-2.597707987,7.353917415,
6.657116734,4.314259052,5.48734045,-2.449054003,7.397405079,
6.659622828,4.409972191,5.477769375,-2.310270309,7.40210517,
6.662128974,4.498506546,5.439484119,-2.214557409,7.39789248,
6.664635068,4.541577339,5.394020557,-2.147558212,7.371118557,
6.667141161,4.532006264,5.343770981,-2.080559254,7.309151516,
6.669647307,4.503292084,5.25254488,-2.049452543,7.215893779,
6.672153401,4.429114819,5.140082359,-2.082952023,7.097618887,
6.674659495,4.321437836,5.015655518,-2.16670084,6.96607621,
6.677165589,4.156033993,4.860121727,-2.27677083,6.788010545,
6.679671734,3.974179268,4.706682205,-2.413161755,6.615913232,
6.682177828,3.761218071,4.520041943,-2.557030201,6.41217155,
6.684683922,3.528815269,4.331008911,-2.746062994,6.225033121,
6.687190068,3.294318676,4.156033993,-2.970988512,6.078809655,
6.689696161,3.073879719,3.988536358,-3.215355396,5.974585268,
6.692202255,2.839383125,3.797110319,-3.401995659,5.835556338,
6.694708349,2.612065077,3.636492252,-3.557528973,5.718651262,
6.697214495,2.396411896,3.502494097,-3.675076485,5.613950662,
6.699720589,2.188236237,3.363710403,-3.775574923,5.509799588,
6.702226682,1.98963201,3.246462107,-3.907180309,5.455658504,
6.704732828,1.824228168,3.12921381,-4.062713623,5.442924716,
6.707238922,1.685444474,3.061915636,-4.240081787,5.494938034,
6.709745016,1.577767372,2.997309446,-4.433900356,5.579667209,
6.712251161,1.522732496,2.930310488,-4.622933388,5.681280394,
6.714757255,1.470090389,2.930310488,-4.785944462,5.801133484,
6.717263349,1.443769336,2.935096025,-4.879264355,5.874221584,
6.719769495,1.458126307,2.985345364,-4.9319067,5.946606004,
6.722275589,1.520339727,3.081058264,-4.960620403,6.034244584,
6.724781682,1.654337764,3.234498024,-4.955834866,6.14484419,
6.727287776,1.867298961,3.485744476,-4.927121162,6.317732419,
6.729793922,2.068595171,3.811467409,-4.740181446,6.424615937,
6.732300016,2.176272154,4.110570431,-4.448257446,6.435832818,
6.734806109,2.248056889,4.340580463,-4.278367043,6.496062121,
6.737312255,2.26241374,4.512863636,-4.338187218,6.656149222,
6.739818349,2.224128723,4.563112736,-4.517649174,6.795432324,
6.742324443,2.10209465,4.570291042,-4.687539577,6.876000976,
6.744830589,1.8840487,4.55354166,-4.694717884,6.806229291,
6.747336682,1.582553029,4.610969067,-4.560719967,6.675752874,
6.749842776,1.204187989,4.677968502,-4.34775877,6.498958712,
6.75234887,0.8138588071,4.766502857,-4.141676903,6.366741962,
6.754855016,0.4142574072,4.862514496,-3.940679789,6.272528487,
6.757361109,-0.004785645287,4.965405941,-3.797110319,6.250866007,
6.759867203,-0.4692923427,5.089832783,-3.643670797,6.277178501,
6.762373349,-0.9409775138,5.23818779,-3.440280676,6.337158759,
6.764879443,-1.434198022,5.396413326,-3.239283562,6.455320189,
6.767385536,-1.970489502,5.571089268,-2.992523909,6.623825469,
6.76989163,-2.528316259,5.760122299,-2.68624258,6.840123625,
6.772397776,-3.061915636,5.992525101,-2.425125837,7.153105603,
6.77490387,-3.557528973,6.262914181,-2.137987137,7.513394401,
6.777409964,-4.072285175,6.483353138,-1.742872238,7.852068396,
6.779916109,-4.610969067,6.686742783,-1.37886405,8.23861826,
6.782422203,-5.164010525,6.935596466,-1.115653515,8.718611461,
6.784928297,-5.750551224,7.16321373,-0.9242277741,9.232262306,
6.787434443,-6.365805626,7.40488863,-0.6343970895,9.785617842,
6.789940536,-7.057929516,7.680362701,-0.308973223,10.4354111,
6.79244663,-7.790432453,7.926823139,0.02871387079,11.11423355,
6.794952724,-8.542078018,8.159226418,0.3831507266,11.8189203,
6.79745887,-9.329915047,8.384151459,0.7995018363,12.56902994,
6.799964964,-10.12463093,8.573184013,1.256830096,13.32618691,
6.802471057,-10.96032429,8.760123253,1.745265007,14.13910951,
6.804977203,-11.83400345,8.939585686,2.329412937,15.01286097,
6.807483297,-12.72233868,9.09990406,2.994916677,15.92594365,
6.809989391,-13.67258835,9.277272224,3.79471755,16.95309215,
6.812495536,-14.63749409,9.461520195,4.704289436,18.05289275,
6.81500163,-15.62632847,9.672088623,5.721837044,19.24761956,
6.817507724,-16.62712669,9.859027863,6.748956203,20.47462289,
6.820013818,-17.6132679,10.05763149,7.725826263,21.70418275,
6.822519964,-18.57578087,10.26341438,8.618648529,22.90585978,
6.825026057,-19.49043846,10.44317532,9.248259544,23.96804971,
6.827532151,-20.38325882,10.60349464,9.562018394,24.88661356,
6.830038297,-21.19981003,10.70638561,9.612267494,25.62136461,
6.832544391,-21.97538376,10.70638561,9.444769859,26.20587457,
6.835050484,-22.71985054,10.61067295,9.087940216,26.67149502,
6.83755663,-23.44786644,10.39053345,8.47986412,27.01247344,
6.840062724,-24.1516571,10.06720352,7.778468132,27.29754007,
6.842568818,-24.7980175,9.657731056,6.99063158,27.51512986,
6.845074911,-25.42045021,9.138189316,6.128916264,27.69962829,
6.847581057,-25.99741936,8.551649094,5.290830135,27.87452957,
6.850087151,-26.55285454,7.893323898,4.536791801,28.07028903,
6.852593245,-27.04607391,7.184749126,3.854538202,28.2483309,
6.855099391,-27.48426056,6.488138676,3.251247883,28.42624025,
6.857605484,-27.884161,5.786443233,2.769991398,28.6126233,
6.860111578,-28.22872734,5.04676199,2.386840582,28.77547327,
6.862617724,-28.5185585,4.350151539,2.07098794,28.92267257,
6.865123818,-28.74348259,3.670290947,1.824228168,29.03423213,
6.867629911,-28.93281555,3.057130098,1.678265929,29.14224488,
6.870136057,-29.1146698,2.477767944,1.673480392,29.26779575,
6.872642151,-29.23670387,1.994417667,1.790728688,29.35931308,
6.875148245,-29.34438133,1.553839207,2.068595171,29.45821139,
6.877654339,-29.43530846,1.161117196,2.492124796,29.5634278,
6.880160484,-29.53371239,0.818644464,3.069094181,29.70403483,
6.882666578,-29.60549736,0.5291129351,3.694219112,29.83978367,
6.885172672,-29.6222477,0.2464607358,4.314259052,29.93578348,
6.887678818,-29.60788918,-0.08135596663,4.963013172,30.02107959,
6.890184911,-29.548069,-0.423828721,5.657230854,30.08774291,
6.892691005,-29.4161644,-0.7755736113,6.303592205,30.09397809,
6.895197099,-29.20081139,-1.168295622,6.985845566,30.04753465,
6.897703245,-28.7578392,-1.53230381,7.608577728,29.78677098,
6.900209339,-27.93919563,-1.824228168,8.079963684,29.14124696,
6.902715432,-26.88575554,-2.042274237,8.518149376,28.27673255,
6.905221578,-25.69831657,-2.171486616,9.037691116,27.32761771,
6.907727672,-24.47737885,-2.224128723,9.67926693,26.41546956,
6.910233766,-23.26810646,-2.228914261,10.33041382,25.55563121,
6.912739911,-22.13809586,-2.216950178,10.86431217,24.75971396,
6.915246005,-21.06581306,-2.238485575,11.16849995,23.94816671,
6.917752099,-20.05544281,-2.286342144,11.24507046,23.10627093,
6.920258245,-19.13121605,-2.379662037,11.13021469,22.26090515,
6.922764339,-18.2527504,-2.48733902,10.78774166,21.34771938,
6.925270432,-17.38834381,-2.533101797,10.33998489,20.38838868,
6.927776526,-16.5649128,-2.568994284,9.813264847,19.42411477,
6.930282672,-15.73161221,-2.631207705,9.245866776,18.43618532,
6.932788766,-14.94407463,-2.683849812,8.630612373,17.46470401,
6.935294859,-14.15863037,-2.688635349,8.060821533,16.51279558,
6.937801005,-13.39980698,-2.67188549,7.498209,15.5857928,
6.940307099,-12.65294743,-2.614457846,6.940382004,14.66633461,
6.942813193,-11.89143085,-2.542673111,6.380162239,13.73236267,
6.945319339,-11.14696407,-2.482553482,5.796014786,12.806704,
6.947825432,-10.39531898,-2.427518606,5.185545921,11.86783004,
6.950331526,-9.657731056,-2.315055847,4.534399033,10.91751012,
6.95283762,-8.937192917,-2.173879385,3.895216227,9.988587401,
6.955343766,-8.183154106,-2.039881229,3.246462107,9.036849161,
6.957849859,-7.424031258,-1.917548299,2.614457846,8.101149389,
6.960355953,-6.660421848,-1.809871197,2.023131609,7.192351107,
6.962862099,-5.915955067,-1.735693693,1.462911963,6.336502849,
6.965368193,-5.180759907,-1.635195136,0.9672985673,5.518134002,
6.967874286,-4.441078663,-1.575374603,0.5650052428,4.745968369,
6.970380432,-3.742075443,-1.529910922,0.2488535494,4.050393085,
6.972886526,-3.042773008,-1.556231976,0.08374879509,3.418675095,
6.97539262,-2.432304144,-1.582553029,0.08614161611,2.903101431,
6.977898714,-1.838585138,-1.620838284,0.2799602449,2.466959626,
6.980404859,-1.26640141,-1.656730533,0.579362154,2.164298754,
6.982910953,-0.7468597889,-1.680658817,0.9720842242,2.080231079,
6.985417047,-0.2512463629,-1.74047935,1.400399446,2.248001715,
6.987923193,0.2153540403,-1.812264085,1.879263043,2.619600745,
6.990429286,0.6224330068,-1.907976985,2.355733871,3.094718258,
6.99293538,0.9864411354,-2.044667006,2.786741018,3.594392129,
6.995441526,1.304686546,-2.202593327,3.177070379,4.080122613,
6.99794762,1.563410521,-2.410768747,3.540779352,4.5599536,
7.000453714,1.802692771,-2.650350094,3.856930971,5.014974911,
7.002959859,2.015953064,-2.937488794,4.124927044,5.450498169,
7.005465953,2.19780755,-3.270390272,4.366901398,5.881805707,
7.007972047,2.353341103,-3.605385542,4.560719967,6.271936373,
7.010478141,2.477767944,-3.935894251,4.658825874,6.582951927,
7.012984286,2.592922449,-4.259224415,4.704289436,6.855259189,
7.01549038,2.67188549,-4.610969067,4.711467743,7.113222624,
7.017996474,2.738884687,-4.924727917,4.673182487,7.320728717,
7.02050262,2.784348249,-5.231009483,4.565505505,7.480634726,
7.023008714,2.839383125,-5.554339409,4.431507587,7.651865282,
7.025514807,2.875275612,-5.834300041,4.240081787,7.764313259,
7.028020953,2.887239695,-6.104988098,4.069892406,7.884862518,
7.030527047,2.906382322,-6.396912098,3.825824261,8.000279612,
7.033033141,2.906382322,-6.631708145,3.550350666,8.06421732,
7.035539286,2.906382322,-6.815955162,3.275176048,8.101301199,
7.03804538,2.91116786,-7.004988194,3.014059305,8.162677955,
7.040551474,2.91116786,-7.16321373,2.75084877,8.206929889,
7.043057568,2.918346405,-7.29003334,2.461018085,8.229091193,
7.045563714,2.937488794,-7.388139248,2.164308071,8.240004332,
7.048069807,2.973381281,-7.452745438,1.90079844,8.246056361,
7.050575901,3.021237612,-7.476673603,1.683051586,8.237790208,
7.053082047,3.052344322,-7.450352192,1.517946839,8.193211596,
7.055588141,3.124428272,-7.40488863,1.407876968,8.159445153,
7.058094234,3.19382,-7.29003334,1.333400369,8.069884066,
7.06060038,3.323032379,-7.158428192,1.316650629,8.001200363,
7.063106474,3.442673683,-6.964310169,1.335793257,7.882763592,
7.065612568,3.543172121,-6.717849731,1.402792215,7.72343186,
7.068118661,3.672683716,-6.471388817,1.503589988,7.591328062,
7.070624807,3.799503326,-6.253343105,1.632802367,7.497104047,
7.073130901,3.907180309,-6.047560215,1.769193292,7.414114069,
7.075636995,3.983750582,-5.860620975,1.864906192,7.327688723,
7.078143141,4.062713623,-5.750551224,1.919941068,7.297989796,
7.080649234,4.151247978,-5.683551788,1.896012783,7.289066139,
7.083155328,4.256831646,-5.606981754,1.764407635,7.257547406,
7.085661474,4.338187218,-5.511268616,1.639980793,7.203019304,
7.088167568,4.342973232,-5.355735302,1.556231976,7.068746359,
7.090673661,4.304687977,-5.135296345,1.561017632,6.880289469,
7.093179755,4.220939159,-4.936692238,1.556231976,6.679005585,
7.095685901,4.08424902,-4.761716843,1.496411443,6.449363112,
7.098191995,3.868895054,-4.608576298,1.434198022,6.185810246,
7.100698089,3.55992198,-4.510470867,1.462911963,5.929376304,
7.103204234,3.174677372,-4.407579422,1.568196177,5.653721962,
7.105710328,2.726920605,-4.371686935,1.702194214,5.426343869,
7.108216422,2.255235434,-4.357329845,1.855334878,5.245443523,
7.110722568,1.764407635,-4.374079704,2.015953064,5.129305442,
7.113228661,1.220937729,-4.433900356,2.214557409,5.104353615,
7.115734755,0.6798607111,-4.493721008,2.379662037,5.130158915,
7.118240901,0.1339980662,-4.610969067,2.62402916,5.307025555,
7.120746995,-0.4166502357,-4.819443703,2.868097067,5.623754601,
7.123253089,-0.97926265,-5.058726311,3.114856958,6.020963469,
7.125759182,-1.508375525,-5.37487793,3.351746321,6.511429404,
7.128265328,-2.001596212,-5.690730572,3.600599766,7.025319958,
7.130771422,-2.39162612,-5.908776283,3.797110319,7.419673809,
7.133277516,-2.784348249,-6.171987057,4.029214382,7.879123552,
7.135783661,-3.177070379,-6.483353138,4.295116425,8.400932639,
7.138289755,-3.600599766,-6.736992359,4.522434711,8.877150468,
7.140795849,-4.081856251,-6.859025955,4.730610371,9.278279042,
7.143301995,-4.608576298,-6.813562393,4.99651289,9.624383047,
7.145808089,-5.209474087,-6.727420807,5.382056236,10.06793625,
7.148314182,-5.874977589,-6.677171707,5.738586903,10.58448692,
7.150820328,-6.586244106,-6.653243542,6.064310074,11.15437662,
7.153326422,-7.378567696,-6.729813576,6.34187746,11.8301759,
7.155832516,-8.231010437,-6.859025955,6.595815659,12.58175481,
7.158338661,-9.162117958,-7.031608582,6.854240417,13.43013538,
7.160844755,-10.21077251,-7.371389389,7.002595425,14.40949685,
7.163350849,-11.36471081,-7.855038643,7.127321243,15.54532058,
7.165856943,-12.63619709,-8.400900841,7.502994537,16.92759696,
7.168363089,-14.12034512,-9.092725754,8.156833649,18.67071887,
7.170869182,-15.86800289,-9.8638134,9.274879456,20.85933171,
7.173375276,-17.84088516,-10.77817059,10.96750259,23.55317935,
7.175881422,-19.84218216,-11.73111248,12.53300667,26.23751987,
7.178387516,-21.79352951,-12.68644619,13.4907341,28.59901663,
7.180893609,-23.605793,-13.64866066,13.39741421,30.38108142,
7.183399755,-25.27688026,-14.56810284,12.48275757,31.73278325,
7.185905849,-26.83311272,-15.38435364,10.99621677,32.82698674,
7.188411943,-27.90330315,-15.5545435,9.334700584,33.28174852,
7.190918036,-28.75305367,-15.68136311,7.591827869,33.61962365,
7.193424182,-29.51457024,-15.79143333,5.312365532,33.89248369,
7.195930276,-30.10828972,-15.58325768,3.066701412,34.04044193,
7.19843637,-30.72115135,-15.18335724,1.189831018,34.28905329,
7.200942516,-31.28854942,-14.70210075,-0.2584248483,34.57154719,
7.203448609,-31.86551857,-14.14427376,-1.381256819,34.89096766,
7.205954703,-32.46163177,-13.4907341,-2.216950178,35.22317862,
7.208460849,-33.07688522,-12.79651642,-2.693420887,35.56804302,
7.210966943,-33.64906693,-12.06132126,-2.91116786,35.86377105,
7.213473036,-34.24518204,-11.29771233,-2.834597588,36.17189157,
7.215979182,-34.83889771,-10.51017475,-2.513660192,36.4764452,
7.218485276,-35.48765182,-9.808479309,-2.097309113,36.87788503,
7.22099137,-36.13162231,-9.135796547,-1.711765528,37.3080025,
7.223497464,-36.75914001,-8.515756607,-1.304686546,37.75519424,
7.226003609,-37.40310669,-7.936394691,-0.9002995491,38.24642846,
7.228509703,-37.96093369,-7.385746002,-0.6248258352,38.67779903,
7.231015797,-38.42753601,-6.818347931,-0.4357928336,39.03018457,
7.233521943,-38.82504272,-6.217450619,-0.2201396823,39.32033947,
7.236028036,-39.1675148,-5.64526701,-0.02871387079,39.57226402,
7.23853413,-39.41397476,-5.082654476,0.1124626622,39.74050114,
7.241040276,-39.52883148,-4.388436794,0.3424727321,39.77315908,
7.24354637,-39.46661758,-3.564707518,0.7277171612,39.63395786,
7.246052464,-39.05505371,-2.717349291,1.208973646,39.16813532,
7.248558609,-38.08536148,-1.912762642,1.66151619,38.16954357,
7.251064703,-36.6631279,-1.21854496,2.063809633,36.74138143,
7.253570797,-35.04946899,-0.6774678826,2.456232548,35.1419595,
7.256076943,-33.34009552,-0.3065803945,2.872882605,33.46504767,
7.258583036,-31.56611633,-0.07896314561,3.205784082,31.72858312,
7.26108913,-29.7610302,0.01914258115,3.390031576,29.9534906,
7.263595224,-27.98705101,0.009571290575,3.454637766,28.19946166,
7.26610137,-26.37578583,-0.1531406492,3.437887907,26.59933464,
7.268607464,-24.88894463,-0.4118646085,3.351746321,25.11699426,
7.271113557,-23.46940231,-0.6918248534,3.248854876,23.70330198,
7.273619703,-22.19582367,-0.9649057388,3.081058264,22.42941264,
7.276125797,-20.93390846,-1.1395818,2.825026274,21.15438356,
7.278631891,-19.72254181,-1.256830096,2.523231506,19.92297605,
7.281138036,-18.57817459,-1.31425786,2.228914261,18.7575026,
7.28364413,-17.46730614,-1.333400369,1.886441588,17.61940414,
7.286150224,-16.39472389,-1.275972724,1.551446438,16.51732617,
7.288656318,-15.37238979,-1.182652593,1.254437327,15.46876363,
7.291162464,-14.35514164,-1.051047325,0.9649057388,14.42587381,
7.293668557,-13.38784313,-0.9194421172,0.6511468887,13.43516691,
7.296174651,-12.46600819,-0.6990033388,0.304187566,12.48929525,
7.298680797,-11.58514977,-0.4932205677,-0.07896314561,11.59591293,
7.301186891,-10.71117115,-0.2584248483,-0.4645066857,10.72435253,
7.303692984,-9.873384476,0.009571290575,-0.8763712645,9.912206576,
7.30619913,-9.044869423,0.3113660514,-1.342971683,9.149327005,
7.308705224,-8.233403206,0.6439684033,-1.826620936,8.458142095,
7.311211318,-7.455138206,0.9984052777,-2.298306227,7.864992707,
7.313717464,-6.710670948,1.3310076,-2.700599432,7.355129033,
7.316223557,-6.00927496,1.685444474,-3.073879719,6.957071592,
7.318729651,-5.324329376,2.051845312,-3.378067255,6.630979631,
7.321235745,-4.685146809,2.420340061,-3.602992773,6.386720876,
7.323741891,-4.069892406,2.829811811,-3.782753468,6.235469741,
7.326247984,-3.49531579,3.205784082,-3.883252144,6.129757847,
7.328754078,-2.966202736,3.55992198,-3.909573078,6.062686272,
7.331260224,-2.472982168,3.921537161,-3.909573078,6.064557376,
7.333766318,-2.013560295,4.271188259,-3.868895054,6.104573953,
7.336272411,-1.589731574,4.579862595,-3.837788343,6.183122773,
7.338778557,-1.175474167,4.840979099,-3.708575964,6.210503509,
7.341284651,-0.8210372925,5.087440014,-3.547957659,6.256528724,
7.343790745,-0.5003990531,5.321936607,-3.387638569,6.328467709,
7.346296891,-0.1914258152,5.506483078,-3.153141975,6.348252047,
7.348802984,0.0933200866,5.666802406,-2.803490877,6.323046675,
7.351309078,0.3257229924,5.829514027,-2.403590441,6.313998437,
7.353815172,0.5362913609,5.918347836,-1.977667928,6.263036002,
7.356321318,0.689432025,5.966204166,-1.541875124,6.200668316,
7.358827411,0.8210372925,5.999703884,-1.110867858,6.156669256,
7.361333505,0.8907282352,5.975775242,-0.7037889361,6.082647894,
7.363839651,0.9481559992,5.901597977,-0.3568296731,5.987919997,
7.366345745,0.9385846853,5.798407555,-0.01196411345,5.873892621,
7.368851839,0.8715856671,5.618945599,0.2536391914,5.691796206,
7.371357984,0.7851449251,5.413163185,0.4597210586,5.489092063,
7.373864078,0.6702894568,5.240580559,0.6176473498,5.319253782,
7.376370172,0.5147559643,5.075475693,0.7157530785,5.151478397,
7.378876318,0.3400799036,4.881657124,0.7229315639,4.94660092,
7.381382411,0.1579262912,4.709074974,0.660718143,4.757822642,
7.383888505,-0.04785645381,4.548755646,0.5386841893,4.580791288,
7.386394599,-0.2512463629,4.386044025,0.3664009571,4.408486882,
7.388900745,-0.4429712892,4.26879549,0.1674975902,4.294984743,
7.391406839,-0.6415755749,4.201497555,-0.07417750359,4.250847354,
7.393912932,-0.8524430394,4.144069672,-0.308973223,4.242102902,
7.396419078,-1.039083242,4.120141506,-0.5506483316,4.284678938,
7.398925172,-1.223330617,4.108177185,-0.8090731502,4.362139033,
7.401431266,-1.386042476,4.134498596,-1.101296663,4.497560086,
7.403937411,-1.513161182,4.163212299,-1.398006678,4.645042097,
7.406443505,-1.64476645,4.187140465,-1.716551185,4.814971435,
7.408949599,-1.766800404,4.232903481,-2.025524378,5.014160403,
7.411455693,-1.821835399,4.259224415,-2.365305185,5.201417639,
7.413961839,-1.874477386,4.256831646,-2.724527597,5.390485299,
7.416467932,-1.93190515,4.232903481,-3.078665495,5.579239251,
7.418974078,-1.955833435,4.213760853,-3.471387386,5.799275415,
7.421480172,-1.951047778,4.16081953,-3.864109516,6.00419428,
7.423986266,-1.922333837,4.069892406,-4.247260094,6.188587067,
7.426492359,-1.845763564,3.990929127,-4.670789719,6.414876072,
7.428998505,-1.769193292,3.907180309,-5.099404335,6.663334559,
7.431504599,-1.668694735,3.77796793,-5.518447399,6.892811146,
7.434010693,-1.541875124,3.655933857,-5.911169052,7.11935045,
7.436516839,-1.366899967,3.5766716,-6.298806667,7.371293013,
7.439022932,-1.180259824,3.526422262,-6.679564476,7.644949235,
7.441529026,-0.9601200819,3.528815269,-7.029215813,7.923650845,
7.444035172,-0.7444669604,3.526422262,-7.321139812,8.160206687,
7.446541266,-0.5123631358,3.540779352,-7.553243637,8.357698478,
7.449047359,-0.2799602449,3.581457376,-7.737790108,8.531038063,
7.451553505,-0.0382851623,3.663112402,-7.845467091,8.658591808,
7.454059599,0.2201396823,3.742075443,-7.900502205,8.74468554,
7.456565693,0.4812564552,3.840181351,-7.919644833,8.814724888,
7.459071839,0.7157530785,3.926322937,-7.922037601,8.87056898,
7.461577932,0.9361918569,4.017250061,-7.905287743,8.916744223,
7.464084026,1.144367456,4.077070713,-7.864609718,8.932198413,
7.46659012,1.342971683,4.153641224,-7.764111042,8.907172875,
7.469096266,1.508375525,4.242474556,-7.567600727,8.805814434,
7.471602359,1.570588946,4.350151539,-7.201498985,8.55874732,
7.474108453,1.53230381,4.517649174,-6.641279221,8.177022607,
7.476614599,1.326221943,4.689932346,-5.901597977,7.653965556,
7.479120693,1.015154958,4.876871586,-5.089832783,7.121854661,
7.481626786,0.5889334679,5.039583683,-4.230510235,6.60616857,
7.484132932,0.1100698411,5.178367138,-3.351746321,6.169425012,
7.486639026,-0.4214358926,5.300401211,-2.472982168,5.864085778,
7.48914512,-1.005583763,5.408377171,-1.599302888,5.728831648,
7.491651214,-1.589731574,5.470590591,-0.7564310431,5.74689445,
7.494157359,-2.238485575,5.504090309,-0.02153540403,5.941909758,
7.496663453,-2.892025232,5.528018475,0.7109674215,6.279193648,
7.499169547,-3.569493294,5.611767292,1.592124343,6.838718772,
7.501675693,-4.261617184,5.736194134,2.499303341,7.570457143,
7.504181786,-4.953442097,5.884549141,3.327818155,8.380863969,
7.50668788,-5.64526701,6.018846035,4.091427803,9.210609571,
7.509194026,-6.315556049,6.145665646,4.725824833,9.999443724,
7.51170012,-6.959524632,6.241378784,5.259723186,10.72634515,
7.514206214,-7.630113125,6.344270229,5.738586903,11.4629739,
7.516712359,-8.350651741,6.451947212,6.179165363,12.22878129,
7.519218453,-9.075976372,6.538387775,6.581458569,12.97842281,
7.521724547,-9.830313683,6.600601196,6.969096184,13.73940701,
7.524230693,-10.61067295,6.643671989,7.328318596,14.50617149,
7.526736786,-11.37906837,6.653243542,7.670791149,15.2508978,
7.52924288,-12.20279694,6.684350014,8.046463966,16.07278353,
7.531748974,-13.05254841,6.677171707,8.446364403,16.92024567,
7.53425512,-13.94566917,6.634100914,8.817551613,17.78319994,
7.536761214,-14.87946892,6.598208427,9.195617676,18.69476756,
7.539267359,-15.85843182,6.495316982,9.554840088,19.62075359,
7.541773453,-16.84726524,6.346662998,9.774979591,20.48562187,
7.544279547,-17.81934929,6.193522453,9.753444672,21.23719879,
7.546785641,-18.78395653,6.016453266,9.444769859,21.86866275,
7.549291786,-19.74886322,5.784050465,8.95154953,22.44110241,
7.55179788,-20.69941139,5.446662426,8.446364403,23.01027673,
7.554303974,-21.66192436,5.049154758,7.905287743,23.60564562,
7.55681012,-22.60978127,4.639683247,7.333104134,24.21782991,
7.559316214,-23.53640175,4.213760853,6.622136593,24.8106969,
7.561822307,-24.43430901,3.737289906,5.892026424,25.41099699,
7.564328453,-25.28645325,3.203391314,5.219045162,26.01739545,
7.566834547,-26.13171768,2.626421928,4.622933388,26.66713847,
7.569340641,-26.96232605,2.025524378,4.108177185,27.34861779,
7.571846734,-27.73072052,1.366899967,3.651148319,28.00343122,
7.57435288,-28.45155907,0.6870391965,3.246462107,28.64441922,
7.576858974,-29.12424088,-0.05264209956,3.018844843,29.2803279,
7.579365068,-29.7107811,-0.8691928387,3.052344322,29.87980615,
7.581871214,-30.2446804,-1.687837243,3.181855917,30.45839284,
7.584377307,-30.70440102,-2.520838737,3.490530014,31.00481688,
7.586883401,-31.13750267,-3.390031576,4.060320854,31.58358105,
7.589389547,-31.5110817,-4.261617184,4.831408024,32.16290028,
7.591895641,-31.81526947,-5.051547527,5.693123341,32.71301205,
7.594401734,-31.97080231,-5.74337244,6.636493683,33.15360577,
7.59690788,-31.94208908,-6.298806667,7.857431412,33.49195797,
7.599413974,-31.70759201,-6.686742783,9.557232857,33.78497625,
7.601920068,-31.06093216,-6.777669907,11.45563793,33.79275006,
7.604426214,-29.94766998,-6.631708145,13.13151169,33.36583716,
7.606932307,-28.58077049,-6.351448536,14.23759365,32.55626535,
7.609438401,-27.20400047,-6.030810356,15.0158596,31.65287278,
7.611944495,-25.86342239,-5.731408596,15.30060482,30.59206058,
7.614450641,-24.61855507,-5.461019516,15.07567978,29.37979082,
7.616956734,-23.53640175,-5.264508724,14.46999645,28.12575433,
7.619462828,-22.62892342,-5.149653435,13.53141212,26.8642182,
7.621968974,-21.83420753,-5.065904617,12.34158134,25.58731401,
7.624475068,-21.09691811,-4.857728958,10.98903847,24.27831235,
7.626981214,-20.47179413,-4.773980141,9.686445236,23.14546311,
7.629487307,-20.01715851,-4.759324074,8.796015739,22.37649868,
7.631993401,-19.59811401,-4.721039295,8.103892326,21.72665082,
7.634499495,-19.14078712,-4.675575256,7.584649563,21.11297337,
7.637005641,-18.57817459,-4.634897232,7.103393078,20.42275781,
7.639511734,-17.94138336,-4.596612453,6.715456963,19.70074733,
7.642017828,-17.2878437,-4.529613495,6.387341022,18.97854219,
7.644523974,-16.54307938,-4.438685894,6.114559174,18.18689753,
7.647030068,-15.77229023,-4.321437836,5.94466877,17.40054743,
7.649536161,-15.00150204,-4.122534275,5.865406513,16.62658551,
7.652042255,-14.26630783,-3.85932374,5.942276001,15.92898499,
7.654548401,-13.54337597,-3.61017108,6.114559174,15.29196527,
7.657054495,-12.76780224,-3.356531858,6.222236156,14.59449564,
7.659560641,-12.02542973,-3.0981071,6.353841305,13.94921242,
7.662066734,-11.29771233,-2.894418001,6.46421051,13.33424077,
7.664572828,-10.55563831,-2.683849812,6.504888535,12.68613908,
7.667078922,-9.875777245,-2.496910334,6.51445961,12.09147309,
7.669585068,-9.162117958,-2.312663078,6.509674072,11.47469706,
7.672091161,-8.446364403,-2.123630047,6.435197353,10.82878761,
7.674597255,-7.721040249,-1.939083695,6.248557091,10.12022598,
7.677103401,-6.969096184,-1.742872238,5.990132332,9.353480134,
7.679609495,-6.243771553,-1.604088426,5.669195175,8.584728116,
7.682115589,-5.50169754,-1.477268934,5.26690197,7.758302372,
7.684621734,-4.756931305,-1.374078393,4.79073,6.889672039,
7.687127828,-4.017250061,-1.271187067,4.189533234,5.941919162,
7.689633922,-3.253640652,-1.216152072,3.602992773,5.004673843,
7.692140016,-2.604886532,-1.192223907,3.141177893,4.25133276,
7.694646161,-2.001596212,-1.194616675,2.860918522,3.690305026,
7.697152255,-1.472483277,-1.2352947,2.774776936,3.375432867,
7.699658349,-1.017547846,-1.304686546,2.848954439,3.294564007,
7.702164495,-0.6296114326,-1.383649707,3.057130098,3.414226341,
7.704670589,-0.323330164,-1.494018674,3.332603693,3.666453541,
7.707176682,-0.05982056633,-1.673480392,3.631706476,3.999175796,
7.709682828,0.1076770201,-1.905584097,3.92392993,4.363493003,
7.712188922,0.2297109663,-2.183450699,4.167997837,4.710884211,
7.714695016,0.3137588799,-2.50169611,4.374079704,5.048712838,
7.717201161,0.371186614,-2.836990356,4.496113777,5.329290092,
7.719707255,0.3735794425,-3.203391314,4.551148891,5.578013422,
7.722213349,0.3807578981,-3.552743435,4.577469826,5.806909031,
7.724719495,0.3664009571,-3.864109516,4.52482748,5.961514551,
7.727225589,0.3496512175,-4.189533234,4.465006828,6.132758814,
7.729731682,0.3257229924,-4.476971149,4.364508629,6.260854711,
7.732237828,0.2850449979,-4.735395908,4.273581028,6.385038752,
7.734743922,0.2153540403,-4.958227634,4.124927044,6.45332641,
7.737250016,0.1244267747,-5.185545921,3.950251102,6.519957998,
7.739756109,0.05503492057,-5.367699623,3.766003847,6.55728702,
7.742262255,-0.01674975827,-5.508875847,3.547957659,6.552556539,
7.744768349,-0.09810572863,-5.64526701,3.344567776,6.562377462,
7.747274443,-0.1818545163,-5.750551224,3.105285645,6.537943819,
7.749780589,-0.2368894368,-5.83669281,2.825026274,6.488749726,
7.752286682,-0.304187566,-5.882156372,2.540280342,6.41446162,
7.754792776,-0.3257229924,-5.935097694,2.267199516,6.361735122,
7.757298922,-0.3544368446,-5.947061539,1.994417667,6.28258452,
7.759805016,-0.3640081584,-5.908776283,1.74047935,6.170527325,
7.762311109,-0.3520440459,-5.899205208,1.520339727,6.102129954,
7.764817255,-0.3161516786,-5.860620975,1.321436286,6.016063826,
7.767323349,-0.2608176768,-5.817550182,1.161117196,5.938022325,
7.769829443,-0.2009970993,-5.77208662,0.9744769931,5.857216847,
7.772335589,-0.1076770201,-5.700301647,0.766002357,5.752546638,
7.774841682,0.03349951655,-5.671587944,0.5530411601,5.698586364,
7.777347776,0.1698904037,-5.597410202,0.3640081584,5.611805918,
7.779853922,0.3281157911,-5.532804012,0.1531406492,5.544639958,
7.782360016,0.5315057039,-5.441876888,-0.05982056633,5.46809847,
7.784866109,0.7301099896,-5.346164227,-0.2416750938,5.401197958,
7.787372203,0.9744769931,-5.250152111,-0.4142574072,5.355867045,
7.789878349,1.240080357,-5.180759907,-0.5530411601,5.355737767,
7.792384443,1.510768414,-5.082654476,-0.6990033388,5.348308461,
7.794890536,1.764407635,-4.965405941,-0.8476574421,5.337313332,
7.797396682,2.073380709,-4.845765114,-0.9840483069,5.36178125,
7.799902776,2.353341103,-4.723432064,-1.120439172,5.394850206,
7.80240887,2.626421928,-4.601397991,-1.268794179,5.448008286,
7.804915016,2.927917719,-4.469792843,-1.417448282,5.528192278,
7.807421109,3.212962627,-4.321437836,-1.570588946,5.609340732,
7.809927203,3.509672642,-4.16081953,-1.728515267,5.711215829,
7.812433349,3.792324781,-3.974179268,-1.867298961,5.801950837,
7.814939443,4.074677944,-3.773182154,-1.939083695,5.882172175,
7.817445536,4.352544308,-3.526422262,-1.946262121,5.930280952,
7.819951682,4.594219685,-3.229712248,-1.903191328,5.92958961,
7.822457776,4.831408024,-2.853740215,-1.814656854,5.897399105,
7.82496387,5.058726311,-2.384447813,-1.54905355,5.803091431,
7.827470016,5.199902534,-1.790728688,-1.065404296,5.601855221,
7.829976109,5.235795021,-1.149153113,-0.5027918816,5.383948556,
7.832482203,5.166403294,-0.5099703074,0.1148554832,5.19278196,
7.834988297,5.003691196,0.1028913707,0.7444669604,5.059816526,
7.837494443,4.718646049,0.6104688644,1.390828133,4.957085401,
7.840000536,4.225724697,0.9122636318,2.030309916,4.776100135,
7.84250663,3.569493294,1.022333503,2.600100994,4.532876939,
7.845012776,2.760420084,0.9074779749,3.119642496,4.26328566,
7.84751887,1.869691849,0.6176473498,3.600599766,4.103846309,
7.850024964,0.9433703423,0.2033899277,4.002892971,4.117580261,
7.852531109,0.03110669367,-0.2826521695,4.354937077,4.364210904,
7.855037203,-0.8234301209,-0.8066803217,4.687539577,4.827193553,
7.857543297,-1.620838284,-1.304686546,5.003691196,5.419063509,
7.860049443,-2.338984251,-1.721336842,5.350949764,6.088227265,
7.862555536,-3.047558784,-2.035095692,5.74337244,6.812896301,
7.86506163,-3.746861219,-2.269592285,6.227021694,7.613528572,
7.867567776,-4.481756687,-2.403590441,6.801598549,8.492651696,
7.87007387,-5.209474087,-2.484946251,7.438388348,9.415051744,
7.872579964,-5.95902586,-2.475374937,8.226224899,10.45505841,
7.875086109,-6.715456963,-2.408375978,9.109476089,11.57066081,
7.877592203,-7.438388348,-2.34137702,10.00738239,12.68697639,
7.880098297,-8.209475517,-2.303091764,10.9049902,13.84263454,
7.882604391,-9.066405296,-2.353341103,11.79093266,15.05868561,
7.885110536,-9.985847473,-2.508874655,12.67687511,16.33140424,
7.88761663,-10.96989536,-2.710170746,13.45484161,17.57032705,
7.890122724,-11.86989594,-2.915953398,13.92891979,18.53137934,
7.89262887,-12.72233868,-3.150749207,14.15145206,19.28856442,
7.895134964,-13.64148235,-3.382853031,14.08206081,19.89568225,
7.897641057,-14.48435402,-3.614956856,13.73480225,20.28568996,
7.900147203,-15.28864098,-3.79471755,13.05733395,20.4606059,
7.902653297,-16.13629913,-3.935894251,12.30808163,20.67269423,
7.905159391,-16.93340683,-4.010071754,11.51575851,20.86704666,
7.907665536,-17.77627945,-4.067499161,10.75424194,21.17060179,
7.91017163,-18.64995956,-4.089034557,10.11266708,21.60572218,
7.912677724,-19.53590202,-4.022035599,9.475876808,22.08213032,
7.91518387,-20.56062698,-3.964607954,9.042476654,22.80841692,
7.917689964,-21.55873299,-3.928715706,8.661719322,23.56351325,
7.920196057,-22.5643177,-3.892823458,8.319544792,24.36221118,
7.922702203,-23.59383011,-3.837788343,8.08953476,25.23564961,
7.925208297,-24.65684128,-3.785146236,7.701898098,26.10759254,
7.927714391,-25.66720963,-3.715754509,7.447959423,26.98304247,
7.930220536,-26.64138794,-3.634099483,7.239784241,27.84573049,
7.93272663,-27.63261414,-3.524029493,7.048357964,28.73429132,
7.935232724,-28.59991264,-3.366103172,6.890132904,29.6101264,
7.937738818,-29.57439041,-3.205784082,6.717849731,30.49673958,
7.940244964,-30.46960449,-3.018844843,6.466603279,31.29420362,
7.942751057,-31.33401299,-2.803490877,6.291627884,32.08215255,
7.945257151,-32.21008301,-2.583351135,6.305984974,32.92307089,
7.947763297,-32.97399521,-2.329412937,6.227021694,33.6375731,
7.950269391,-33.62274551,-2.008774519,6.167201042,34.24264242,
7.952775484,-34.27628708,-1.62801671,6.325127602,34.89300121,
7.95528163,-34.83172226,-1.230509043,6.492924213,35.45308298,
7.957787724,-35.31536865,-0.8210372925,6.710670948,35.9566749,
7.960293818,-35.74637604,-0.3807578981,6.942774773,36.41634932,
7.962799964,-36.07180023,0.05503492057,7.144071102,36.77248364,
7.965306057,-36.28506088,0.5267201066,7.321139812,37.02002384,
7.967812151,-36.31856155,1.046261668,7.452745438,37.09010638,
7.970318297,-36.21806335,1.599302888,7.526922703,37.02648307,
7.972824391,-35.94019699,2.228914261,7.591827869,36.80083788,
7.975330484,-35.1957283,2.748456001,7.536494255,36.09836626,
7.977836578,-33.76871109,2.966202736,7.256533623,34.66672017,
7.980342724,-32.24358368,2.918346405,6.985845566,33.12049928,
7.982848818,-30.76661491,2.681456804,6.708278179,31.60341437,
7.985354911,-29.38266563,2.329412937,6.387341022,30.15900081,
7.987861057,-28.0731926,1.984846354,6.081059456,28.79276023,
7.990367151,-26.79482841,1.685444474,5.796014786,27.46629462,
7.992873245,-25.58585358,1.486840129,5.51605463,26.21590081,
7.995379391,-24.47259331,1.340578914,5.290830135,25.0738481,
7.997885484,-23.41197586,1.292722464,5.04676199,23.98461073,
8.000391578,-22.37289238,1.297508121,4.850550652,22.9294065,
8.002897724,-21.33141518,1.4054842,4.622933388,21.87181228,
8.005403818,-20.31865311,1.589731574,4.448257446,20.86053463,
8.007909911,-19.34178352,1.838585138,4.33340168,19.90636469,
8.010416057,-18.34607124,2.13559413,4.196712017,18.9407361,
8.012922151,-17.35484314,2.477767944,4.120141506,18.00848357,
8.015428245,-16.35165215,2.825026274,4.010071754,17.07155461,
8.017934391,-15.3915329,3.126821041,3.82821703,16.16575208,
8.020440484,-14.44367599,3.39960289,3.574278831,15.26278301,
8.022946578,-13.5409832,3.663112402,3.401995659,14.43434075,
8.025452724,-12.65294743,3.885644913,3.22492671,13.62334273,
8.027958818,-11.81007481,4.074677944,2.997309446,12.84775199,
8.030464911,-10.99860954,4.237689018,2.693420887,12.0905722,
8.032971057,-10.22512913,4.381258488,2.362912416,11.37242484,
8.035477151,-9.47109127,4.491328239,2.080559254,10.68654884,
8.037983245,-8.796015739,4.58943367,1.793121457,10.08206719,
8.040489339,-8.137690544,4.677968502,1.491625786,9.504227701,
8.042995484,-7.546065331,4.759324074,1.137188911,8.993745951,
8.045501578,-6.959524632,4.836193562,0.8090731502,8.513421793,
8.048007672,-6.416054726,4.893621445,0.5003990531,8.084781277,
8.050513818,-5.906383514,4.948656559,0.2321037948,7.708984377,
8.053019911,-5.444269657,4.99651289,-0.0239282269,7.38957277,
8.055526005,-5.013262749,5.025226593,-0.2081755698,7.101340913,
8.058032151,-4.61814785,5.051547527,-0.3831507266,6.855087634,
8.060538245,-4.26879549,5.056333542,-0.5027918816,6.636408931,
8.063044339,-3.95503664,5.039583683,-0.555433929,6.430258577,
8.065550484,-3.660719633,5.008476734,-0.5147559643,6.225004509,
8.068056578,-3.41635251,4.960620403,-0.4740779996,6.041851472,
8.070562672,-3.217748165,4.90319252,-0.4645066857,5.883108583,
8.073068818,-2.999702215,4.831408024,-0.4357928336,5.70356312,
8.075574911,-2.808276415,4.756931305,-0.4022932947,5.538650716,
8.078081005,-2.667099953,4.661218643,-0.4310071766,5.387592095,
8.080587151,-2.552244425,4.565505505,-0.4812564552,5.25256127,
8.083093245,-2.432304144,4.445864677,-0.5841478109,5.101278746,
8.085599339,-2.317448616,4.285545349,-0.7301099896,4.926411232,
8.088105484,-2.250449657,4.127319813,-0.8572286963,4.778507459,
8.090611578,-2.19780755,3.933501244,-0.955334425,4.606023657,
8.093117672,-2.173879385,3.739682674,-1.039083242,4.448670821,
8.095623766,-2.173879385,3.550350666,-1.151545882,4.319351728,
8.098129911,-2.130808592,3.327818155,-1.297508121,4.159116042,
8.100636005,-2.094916344,3.107678413,-1.522732496,4.045374379,
8.103142099,-2.07098794,2.91116786,-1.795514345,3.998469847,
8.105648245,-2.018345833,2.700599432,-2.106880426,3.975663759,
8.108154339,-1.946262121,2.51844573,-2.43708992,4.008729527,
8.110660432,-1.896012783,2.307877541,-2.822633505,4.109552666,
8.113166578,-1.819442511,2.121237278,-3.301496983,4.325494303,
8.115672672,-1.711765528,1.968096614,-3.847359657,4.648195546,
8.118178766,-1.594517231,1.807478428,-4.424329281,5.038268855,
8.120684911,-1.450947881,1.654337764,-5.037190914,5.496851416,
8.123191005,-1.304686546,1.527518153,-5.63090992,5.978516975,
8.125697099,-1.130010486,1.41984117,-6.248557091,6.506714867,
8.128203245,-0.9290133715,1.323829174,-6.856633186,7.044785886,
8.130709339,-0.6990033388,1.240080357,-7.392924786,7.528727771,
8.133215432,-0.4429712892,1.165902853,-7.917252064,8.014888225,
8.135721578,-0.1722832322,1.1395818,-8.336295128,8.415589382,
8.138227672,0.1172483116,1.089332461,-8.676075935,8.744980618,
8.140733766,0.4357928336,1.079761267,-8.956335068,9.031707349,
8.143239911,0.794716239,1.063011408,-9.190832138,9.286170499,
8.145746005,1.15393877,1.048654556,-9.408877373,9.537202131,
8.148252099,1.553839207,1.036690354,-9.55005455,9.731016652,
8.150758193,1.960619092,1.031904817,-9.640981674,9.892289038,
8.153264339,2.386840582,1.053440213,-9.693623543,10.03857966,
8.155770432,2.805883646,1.086939692,-9.619445801,10.07909512,
8.158276526,3.220141172,1.113260746,-9.47109127,10.06529823,
8.160782672,3.612564087,1.151545882,-9.277272224,10.02219822,
8.163288766,3.986143351,1.208973646,-9.028120041,9.942731393,
8.165794859,4.307080746,1.237687469,-8.685647011,9.773601118,
8.168301005,4.596612453,1.26640141,-8.300402641,9.572319603,
8.170807099,4.831408024,1.278365493,-7.943572998,9.384938668,
8.173313193,5.020441055,1.232901812,-7.673183918,9.252168757,
8.175819339,5.2238307,1.264008522,-7.270890713,9.041679959,
8.178325432,5.319543839,1.328614831,-6.679564476,8.641721218,
8.180831526,5.391627789,1.369292736,-6.033203125,8.20634832,
8.183337672,5.422734261,1.45334065,-5.346164227,7.752400779,
8.185843766,5.425127029,1.558624864,-4.656432629,7.317354684,
8.188349859,5.413163185,1.67587316,-4.002892971,6.937869893,
8.190856005,5.346164227,1.855334878,-3.32063961,6.561279362,
8.193362099,5.166403294,2.082952023,-2.628814697,6.159633011,
8.195868193,4.888835907,2.360519648,-1.915155411,5.756786411,
8.198374339,4.522434711,2.714956284,-1.275972724,5.426924519,
8.200880432,4.103391647,3.081058264,-0.7253243923,5.182358393,
8.203386526,3.675076485,3.433102369,-0.2874378264,5.037360375,
8.205892672,3.196212769,3.785146236,0.04067798331,4.95426713,
8.208398766,2.700599432,4.127319813,0.3520440459,4.944890407,
8.210904859,2.219342947,4.476971149,0.6200401783,5.035196482,
8.213411005,1.721336842,4.850550652,0.9170492887,5.227984463,
8.215917099,1.208973646,5.259723186,1.197009563,5.528031944,
8.218423193,0.6942176819,5.669195175,1.470090389,5.897701067,
8.220929286,0.1914258152,6.083452702,1.726122379,6.326495008,
8.223435432,-0.3017947674,6.552744865,1.915155411,6.833547073,
8.225941526,-0.8210372925,7.036394119,2.073380709,7.381317769,
8.22844762,-1.292722464,7.481459141,2.228914261,7.912737897,
8.230953766,-1.735693693,7.922037601,2.377269268,8.451196455,
8.233459859,-2.161915302,8.350651741,2.578565598,9.003125169,
8.235965953,-2.612065077,8.767302513,2.758027315,9.554851752,
8.238472099,-3.073879719,9.159725189,2.968595505,10.10751509,
8.240978193,-3.557528973,9.547661781,3.189034462,10.67631953,
8.243484286,-4.060320854,9.904491425,3.485744476,11.25768939,
8.245990432,-4.584648132,10.22991467,3.833002806,11.84744964,
8.248496526,-5.185545921,10.51974583,4.273581028,12.48272541,
8.25100262,-5.817550182,10.78056335,4.819443703,13.16402195,
8.253508766,-6.480959892,11.02732277,5.429912567,13.89563381,
8.256014859,-7.189534664,11.31924725,6.064310074,14.71701816,
8.258520953,-7.874181271,11.65693474,6.713063717,15.58692024,
8.261027099,-8.561220169,11.99671555,7.342675209,16.46604245,
8.263533193,-9.233902931,12.35833073,7.945965767,17.35314593,
8.266039286,-9.847063065,12.7630167,8.53011322,18.23792965,
8.268545432,-10.46710396,13.21555901,9.119047165,19.16685384,
8.271051526,-11.03210926,13.71565914,9.736694336,20.1154159,
8.27355762,-11.54207897,14.25673676,10.37587738,21.0744623,
8.276063766,-12.00150108,14.80738449,10.99860954,22.0060009,
8.278569859,-12.4109726,15.36281872,11.52772236,22.86781193,
8.281075953,-12.78694534,15.88236046,11.93928814,23.62841396,
8.283582047,-13.11236858,16.38515282,12.29851055,24.3240787,
8.286088193,-13.35195065,16.88076591,12.49950695,24.88920485,
8.288594286,-13.51944828,17.37877083,12.35115242,25.24575456,
8.29110038,-13.62712479,17.82892227,11.94885921,25.42330104,
8.293606526,-13.68215942,18.22612953,11.32403278,25.44851671,
8.29611262,-13.78295708,18.56860352,10.62502956,25.44905098,
8.298618766,-13.885849,18.84646988,9.940383911,25.43260627,
8.301124859,-14.02223969,19.05464554,9.332307816,25.43215861,
8.303630953,-14.21605873,19.24128532,8.851051331,25.50812609,
8.306137047,-14.46042538,19.42343903,8.499007225,25.6633398,
8.308643193,-14.71645737,19.57897186,8.343473434,25.87515808,
8.311149286,-14.97996712,19.76561165,8.245368004,26.13551056,
8.31365538,-15.25992775,19.93819427,8.152048111,26.39797103,
8.316161526,-15.55932903,20.0793705,8.180761337,26.68705109,
8.31866762,-15.87518215,20.17029762,8.221439362,26.95281766,
8.321173714,-16.2320118,20.16072655,8.458329201,27.2300649,
8.323679859,-16.62234116,20.04826546,8.874979019,27.51364072,
8.326185953,-17.01237106,19.8086834,9.432806015,27.7629706,
8.328692047,-17.37159348,19.40668869,10.02891827,27.91005244,
8.331198193,-17.53191185,18.62602997,10.61545849,27.69449195,
8.333704286,-17.43619919,17.49362755,10.95314598,27.01887218,
8.33621038,-17.16580963,16.20329857,11.23549843,26.14284471,
8.338716526,-16.77787399,14.95125294,11.64257812,25.30981323,
8.34122262,-16.31575966,13.84277821,12.11665535,24.58942575,
8.343728714,-15.75554085,12.90658665,12.56650639,23.9318643,
8.346234859,-15.12592888,12.18365479,12.98076344,23.36098003,
8.348740953,-14.40539074,11.65693474,13.31845093,22.82061666,
8.351247047,-13.69651699,11.24746323,13.5601263,22.31539899,
8.353753193,-12.99751377,10.92891788,13.84995651,21.9134184,
8.356259286,-12.30568886,10.68485069,14.12991714,21.56966785,
8.35876538,-11.6832552,10.4216404,14.31685638,21.21512237,
8.361271474,-11.10389328,10.17966557,14.38385487,20.82828168,
8.36377762,-10.51256752,9.897313118,14.21127319,20.25910088,
8.366283714,-9.966704369,9.554840088,14.1059885,19.73851759,
8.368789807,-9.461520195,9.20758152,13.97916889,19.22802862,
8.371295953,-8.968298912,8.863015175,13.81645679,18.70502344,
8.373802047,-8.518149376,8.46072197,13.65583897,18.18308618,
8.376308141,-8.103892326,8.065607071,13.43091393,17.63849589,
8.378814286,-7.697112083,7.692326546,13.16501141,17.08025022,
8.38132038,-7.301997185,7.347461224,12.88026524,16.52893166,
8.383826474,-6.949953556,7.000202656,12.65294743,16.04374552,
8.38633262,-6.634100914,6.655636311,12.47079372,15.61504037,
8.388838714,-6.34187746,6.284449577,12.33440208,15.22666053,
8.391344807,-6.069095612,5.973382473,12.11904812,14.81170304,
8.393850953,-5.810371399,5.705087185,11.90578842,14.42415452,
8.396357047,-5.513661385,5.394020557,11.6832552,13.99979898,
8.398863141,-5.2238307,5.132903576,11.37667561,13.53010917,
8.401369286,-5.092225552,5.168796062,11.19003487,13.3365698,
8.40387538,-4.924727917,5.001298428,10.97707367,13.0292777,
8.406381474,-4.721039295,4.886443138,10.68245792,12.66019138,
8.40888762,-4.517649174,4.829015255,10.28734303,12.22938956,
8.411393714,-4.33340168,4.809872627,9.978668213,11.89483351,
8.413899807,-4.153641224,4.778766155,9.681659698,11.568227,
8.416405953,-3.959822416,4.759324074,9.327521324,11.19526745,
8.418912047,-3.749253988,4.713860512,8.894122124,10.74163836,
8.421418141,-3.538386583,4.627718925,8.298009872,10.13868482,
8.423924286,-3.308675528,4.510470867,7.620542049,9.453271514,
8.42643038,-3.069094181,4.34775877,6.940382004,8.745927496,
8.428936474,-2.832204819,4.156033993,6.224628925,8.002500106,
8.43144262,-2.628814697,3.935894251,5.633302689,7.357719038,
8.433948714,-2.434697151,3.660719633,5.020441055,6.673338508,
8.436454807,-2.257628202,3.380460262,4.393222332,5.985382122,
8.438960953,-2.051845312,3.122035265,3.782753468,5.316615199,
8.441467047,-1.872084618,2.856132984,3.401995659,4.820349666,
8.443973141,-1.70937264,2.609672308,3.061915636,4.371232291,
8.446479234,-1.553839207,2.346162558,2.746062994,3.931889748,
8.44898538,-1.388435364,2.066202402,2.429911375,3.478708728,
8.451491474,-1.247258782,1.781157374,2.157129526,3.06290448,
8.453997568,-1.103689432,1.477268934,1.922333837,2.663798274,
8.456503714,-0.9984052777,1.180259824,1.781157374,2.358463047,
8.459009807,-0.9122636318,0.9409775138,1.735693693,2.174924415,
8.461515901,-0.8306085467,0.6822535396,1.80508554,2.100884161,
8.464022047,-0.7827520967,0.4286143482,1.992024899,2.182790485,
8.466528141,-0.7396813035,0.1698904037,2.26241374,2.386316641,
8.469034234,-0.7109674215,-0.05982056633,2.626421928,2.721607121,
8.47154038,-0.6918248534,-0.3017947674,3.037987471,3.130346559,
8.474046474,-0.689432025,-0.5291129351,3.468994617,3.576199193,
8.476552568,-0.7013961077,-0.7779664397,3.833002806,3.973549898,
8.479058714,-0.6990033388,-1.024726272,4.225724697,4.404023026,
8.481564807,-0.7301099896,-1.28315115,4.58943367,4.821041265,
8.484070901,-0.766002357,-1.606481314,4.831408024,5.148790665,
8.486577047,-0.8258228898,-1.912762642,5.175974369,5.579547924,
8.489083141,-0.8452646136,-2.19780755,5.55194664,6.030666778,
8.491589234,-0.8835497499,-2.475374937,5.89441967,6.453861208,
8.49409538,-0.9361918569,-2.73649168,6.148058891,6.794370467,
8.496601474,-0.9696913958,-3.023630619,6.282056808,7.038954558,
8.499107568,-0.9864411354,-3.299104214,6.332305908,7.207999226,
8.501613714,-1.015154958,-3.564707518,6.32752037,7.333157118,
8.504119807,-1.022333503,-3.821038723,6.253343105,7.399310962,
8.506625901,-1.022333503,-4.093820572,6.08584547,7.405541692,
8.509132047,-1.031904817,-4.345366001,5.860620975,7.368440232,
8.511638141,-1.039083242,-4.560719967,5.563910961,7.268904029,
8.514144234,-1.036690354,-4.735395908,5.195116997,7.105486747,
8.51665038,-1.036690354,-4.876871586,4.809872627,6.927732533,
8.519156474,-1.007976532,-4.960620403,4.421936035,6.721405342,
8.521662568,-0.9768698215,-5.013262749,4.057928085,6.523331847,
8.524168714,-0.9146564603,-5.013262749,3.756432533,6.330891344,
8.526674807,-0.8234301209,-4.96779871,3.502494097,6.133883442,
8.529180901,-0.6655037999,-4.814658165,3.294318676,5.871657695,
8.531687047,-0.4621138871,-4.651647091,3.133999348,5.627905633,
8.534193141,-0.2153540403,-4.378865242,3.023630619,5.32570937,
8.536699234,-0.04546362907,-3.883252144,3.042773008,4.933576972,
8.539205328,0.05264209956,-3.315854073,3.184248686,4.597510099,
8.541711474,0.1052841991,-2.762812853,3.308675528,4.311792362,
8.544217568,0.1555334777,-2.271985054,3.366103172,4.064081362,
8.546723661,0.1794617027,-1.855334878,3.323032379,3.810120497,
8.549229807,0.1914258152,-1.582553029,3.241676569,3.612420921,
8.551735901,0.1818545163,-1.402792215,3.122035265,3.427535742,
8.554242047,0.1555334777,-1.299900889,2.947060108,3.224762978,
8.556748141,0.09810572863,-1.2352947,2.73649168,3.003991419,
8.559254234,0.03349951655,-1.185045362,2.504088879,2.770544322,
8.561760328,-0.04067798331,-1.115653515,2.315055847,2.570179184,
8.564266474,-0.1028913707,-1.036690354,2.152343988,2.391212698,
8.566772568,-0.1698904037,-0.9122636318,2.056631088,2.256284361,
8.569278661,-0.2799602449,-0.7348956466,2.054238319,2.1996237,
8.571784807,-0.4334000051,-0.5362913609,2.193022013,2.298867011,
8.574290901,-0.6200401783,-0.3113660514,2.449054003,2.545439873,
8.576796995,-0.8353942037,-0.08853443712,2.805883646,2.928942618,
8.579303141,-1.077368379,0.07417750359,3.198605776,3.375989312,
8.581809234,-1.304686546,0.1842473447,3.59102869,3.825132824,
8.584315328,-1.553839207,0.2129612118,4.002892971,4.29917677,
8.586821474,-1.857727647,0.1962114573,4.41236496,4.791514947,
8.589327568,-2.154736757,0.1435693651,4.860121727,5.31829727,
8.591833661,-2.470589399,0.1100698411,5.355735302,5.899137901,
8.594339807,-2.808276415,0.1339980662,5.834300041,6.476374671,
8.596845901,-3.122035265,0.2201396823,6.334698677,7.065689846,
8.599351995,-3.46420908,0.3927220106,6.899703979,7.730516809,
8.601858141,-3.82821703,0.6439684033,7.488637447,8.435024111,
8.604364234,-4.225724697,1.01036942,8.27408123,9.345481035,
8.606870328,-4.610969067,1.520339727,9.267701149,10.4624449,
8.609376474,-5.010869503,2.14995122,10.4168539,11.75763364,
8.611882568,-5.437091351,2.853740215,11.69043446,13.20500107,
8.614388661,-5.851049423,3.569493294,13.026227,14.71932918,
8.616894807,-6.305984974,4.295116425,14.31207085,16.21878058,
8.619400901,-6.78484869,4.958227634,15.54018688,17.66679375,
8.621906995,-7.232605457,5.63090992,16.73001862,19.07645803,
8.624413141,-7.713861942,6.315556049,17.77149391,20.3768474,
8.626919234,-8.144868851,6.909275532,18.62124443,21.46689826,
8.629425328,-8.539685249,7.392924786,19.28435516,22.34877883,
8.631931474,-8.934800148,7.735397339,19.68186378,22.95741248,
8.634437568,-9.274879456,8.012965202,19.6962204,23.19853655,
8.636943661,-9.588339806,8.187939644,19.51915169,23.23738149,
8.639449807,-9.875777245,8.336295128,19.19582176,23.14096726,
8.641955901,-10.11027431,8.482256889,18.84168434,23.00381267,
8.644461995,-10.3471632,8.685647011,18.4034977,22.82965128,
8.646968089,-10.54606628,8.944371223,17.93420601,22.64634707,
8.649474234,-10.70160007,9.231510162,17.43859291,22.44659321,
8.651980328,-10.8116703,9.559625626,16.98365784,22.28728988,
8.654486422,-10.89063358,9.928419113,16.51675797,22.13555284,
8.656992568,-10.93370438,10.3663063,15.99272919,21.97210924,
8.659498661,-10.99621677,10.8116703,15.47079468,21.8438661,
8.662004807,-11.03210926,11.22353458,15.03500175,21.76525766,
8.664510901,-11.0871439,11.59232807,14.70927906,21.76395461,
8.667016995,-11.14217854,11.8722887,14.46760368,21.78097651,
8.669523089,-11.18524933,12.12862015,14.23759365,21.79271213,
8.672029234,-11.1948204,12.33918858,14.03181076,21.78236194,
8.674535328,-11.17328548,12.53300667,13.84038544,21.75947687,
8.677041422,-11.15892887,12.66730404,13.70130253,21.7418485,
8.679547568,-11.17328548,12.73669624,13.65105343,21.75814789,
8.682053661,-11.2067852,12.75823116,13.62473202,21.77149098,
8.684559755,-11.2378912,12.75105286,13.62473202,21.78331632,
8.687065901,-11.30489063,12.71755314,13.70130253,21.8463361,
8.689571995,-11.36949635,12.65294743,13.83320713,21.92533113,
8.692078089,-11.44128132,12.56650639,13.9552412,21.99019686,
8.694584234,-11.582757,12.51625729,14.12752438,22.14506494,
8.697090328,-11.75504017,12.45643616,14.31446362,22.32146142,
8.699596422,-11.84357452,12.25543976,14.41496181,22.32167524,
8.702102568,-11.81246853,12.01825047,14.36949825,22.14622399,
8.704608661,-11.73111248,11.77896881,14.29741478,21.92667726,
8.707114755,-11.65932751,11.50857925,14.25195122,21.71417574,
8.709620901,-11.59472084,11.249856,14.24716473,21.54016049,
8.712126995,-11.51575851,11.04168034,14.23280811,21.37999592,
8.714633089,-11.37428284,10.8619194,14.16102314,21.16341607,
8.717139234,-11.21874905,10.70877838,14.00788307,20.89878113,
8.719645328,-10.96989536,10.61545849,13.8355999,20.60219376,
8.722151422,-10.67767239,10.55803108,13.64866066,20.29213261,
8.724657568,-10.33519936,10.53170967,13.47877026,19.98525711,
8.727163661,-9.949954987,10.53170967,13.28734398,19.6588917,
8.729669755,-9.578767776,10.50060272,13.07169056,19.31021863,
8.732175901,-9.162117958,10.49103165,12.85155106,18.95174174,
8.734681995,-8.757730484,10.45274639,12.60957718,18.57307694,
8.737188089,-8.355437279,10.37109184,12.39183044,18.19149086,
8.739694234,-7.953144073,10.277771,12.18604755,17.8152977,
8.742200328,-7.536494255,10.19162941,11.96082306,17.42783245,
8.744706422,-7.144071102,10.09830952,11.73589802,17.05124363,
8.747212568,-6.75613451,9.954740524,11.49870968,16.64219146,
8.749718661,-6.389733791,9.859027863,11.27139091,16.28107433,
8.752224755,-6.049952984,9.784550667,11.05125141,15.95210082,
8.754730849,-5.717051506,9.717552185,10.78774166,15.60419394,
8.757236995,-5.401198864,9.65055275,10.50299549,15.25185339,
8.759743089,-5.147260666,9.576375008,10.21555805,14.91840732,
8.762249234,-4.898406982,9.526125908,9.945169449,14.61669802,
8.764755328,-4.651647091,9.456734657,9.624231339,14.27212247,
8.767261422,-4.438685894,9.380164146,9.301200867,13.93562878,
8.769767568,-4.244867325,9.279664993,8.95154953,13.57428893,
8.772273661,-4.089034557,9.188439369,8.597112656,13.23094735,
8.774779755,-3.931108475,9.092725754,8.238189697,12.88406166,
8.777285849,-3.797110319,9.011369705,7.888537884,12.56391104,
8.779791995,-3.660719633,8.939585686,7.531708241,12.2492322,
8.782298089,-3.567100286,8.877371788,7.24217701,11.9992109,
8.784804182,-3.461816072,8.815158844,6.969096184,11.75837989,
8.787310328,-3.3852458,8.714659691,6.669992924,11.4845108,
8.789816422,-3.327818155,8.635397911,6.337091446,11.21620251,
8.792322516,-3.270390272,8.544470787,5.970989704,10.9250241,
8.794828661,-3.232105255,8.451150894,5.549553871,10.61442434,
8.797334755,-3.234498024,8.348258972,5.137689114,10.32236672,
8.799840849,-3.275176048,8.288438797,4.756931305,10.10214785,
8.802346995,-3.363710403,8.245368004,4.388436794,9.927689494,
8.804853089,-3.471387386,8.1759758,4.022035599,9.750583625,
8.807359182,-3.595814228,8.120641708,3.643670797,9.599533249,
8.809865328,-3.71336174,8.075178146,3.217748165,9.452590162,
8.812371422,-3.849752426,8.005785942,2.803490877,9.315189928,
8.814877516,-4.005286217,7.965108395,2.401197433,9.233147813,
8.817383661,-4.165605068,7.898109436,2.001596212,9.150889883,
8.819889755,-4.314259052,7.838288784,1.589731574,9.087290504,
8.822395849,-4.453042984,7.764111042,1.194616675,9.029846128,
8.824901995,-4.572684288,7.649255753,0.7971090674,8.947398395,
8.827408089,-4.65403986,7.512565613,0.4262215197,8.847620804,
8.829914182,-4.716253281,7.359425068,0.08614161611,8.741373045,
8.832420328,-4.773980141,7.170392036,-0.2440679073,8.617713008,
8.834926422,-4.793122768,6.952346325,-0.5961119533,8.465488453,
8.837432516,-4.768895626,6.698707104,-0.9457631707,8.277047199,
8.839938661,-4.725824833,6.423233509,-1.247258782,8.071369372,
8.842444755,-4.649254322,6.162415504,-1.494018674,7.862761754,
8.844950849,-4.551148891,5.920740604,-1.714158297,7.66201437,
8.847456995,-4.414757729,5.676373482,-1.919941068,7.442948032,
8.849963089,-4.252045631,5.446662426,-2.10209465,7.222522105,
8.852469182,-4.062713623,5.240580559,-2.226521492,6.99476408,
8.854975328,-3.871287823,5.041976452,-2.343769789,6.77507585,
8.857481422,-3.614956856,4.862514496,-2.492124796,6.551537704,
8.859987516,-3.349353552,4.670789719,-2.631207705,6.321210311,
8.862493661,-3.064308405,4.476971149,-2.741277456,6.078475036,
8.864999755,-2.746062994,4.29750967,-2.813062191,5.824325731,
8.867505849,-2.446661234,4.117748737,-2.899203777,5.598873851,
8.870011995,-2.111665964,3.964607954,-2.947060108,5.372374955,
8.872518089,-1.783550143,3.787539244,-2.97577405,5.136315394,
8.875024182,-1.43659091,3.638885021,-2.992523909,4.925492563,
8.877530328,-1.220937729,3.478565931,-2.97577405,4.737756966,
8.880036422,-1.055832982,3.332603693,-2.908775091,4.547747046,
8.882542516,-0.8042874932,3.19382,-2.949453115,4.421158021,
8.885048661,-0.5291129351,3.110071182,-3.049951553,4.388018657,
8.887554755,-0.2440679073,3.042773008,-3.141177893,4.38007252,
8.890060849,0.01674975827,2.980559587,-3.239283562,4.401928441,
8.892566943,0.2922234535,2.939881802,-3.303889751,4.43215377,
8.895073089,0.5769693851,2.923131943,-3.344567776,4.479255254,
8.897579182,0.8162516356,2.889632463,-3.401995659,4.537600354,
8.900085328,1.096511006,2.851347208,-3.437887907,4.599085838,
8.902591422,1.357328653,2.827419043,-3.49531579,4.696155022,
8.905097516,1.611266971,2.789133787,-3.571886063,4.80976284,
8.907603661,1.826620936,2.779562712,-3.689433336,4.967336435,
8.910109755,2.032702923,2.755634308,-3.799503326,5.114843804,
8.912615849,2.21216464,2.741277456,-3.92392993,5.273092127,
8.915121995,2.389233351,2.712563515,-4.060320854,5.436234199,
8.917628089,2.530709028,2.698206663,-4.208974838,5.603594969,
8.920134182,2.664707184,2.695813894,-4.414757729,5.818776738,
8.922640328,2.791526794,2.698206663,-4.61814785,6.033260363,
8.925146422,2.875275612,2.722134829,-4.79073,6.215168686,
8.927652516,2.925524712,2.798705101,-4.955834866,6.399354991,
8.930158609,2.970988512,2.915953398,-5.1233325,6.601370529,
8.932664755,3.057130098,3.085843801,-5.25254488,6.815988859,
8.935170849,3.090928555,3.284747362,-5.382056236,7.022103239,
8.937676943,3.138785124,3.509672642,-5.47298336,7.219648258,
8.940183089,3.177070379,3.782753468,-5.532804012,7.417204341,
8.942689182,3.169891834,4.045963764,-5.520840168,7.543057284,
8.945195276,3.0981071,4.342973232,-5.417948723,7.6035421,
8.947701422,2.959024191,4.66839695,-5.257330418,7.628189652,
8.950207516,2.786741018,5.015655518,-5.06111908,7.65099027,
8.952713609,2.557030201,5.346164227,-4.802694321,7.627958319,
8.955219755,2.338984251,5.707480431,-4.436293125,7.597820535,
8.957725849,2.087737799,6.102594852,-3.978965044,7.578421727,
8.960231943,1.809871197,6.521637917,-3.41635251,7.581481342,
8.962738089,1.505982757,6.978667259,-2.748456001,7.65008439,
8.965244182,1.223330617,7.548458099,-1.982453585,7.899739217,
8.967750276,0.9481559992,8.161619186,-1.161117196,8.298145617,
8.970256422,0.6631109715,8.733802795,-0.304187566,8.764220302,
8.972762516,0.4357928336,9.131011009,0.6104688644,9.161765642,
8.975268609,0.2009970993,9.736694336,1.556231976,9.862326013,
8.977774755,-0.04307080805,10.38066292,2.444268227,10.66463618,
8.980280849,-0.294616282,11.02732277,3.258426189,11.50243398,
8.982786943,-0.5865406394,11.6521492,4.060320854,12.35325125,
8.985293089,-0.9218349457,12.33200932,4.893621445,13.29946481,
8.987799182,-1.26640141,13.00708485,5.712265968,14.26246862,
8.990305276,-1.673480392,13.63908863,6.533602238,15.21555893,
8.992811422,-2.128415823,14.23280811,7.297211647,16.13543549,
8.995317516,-2.609672308,14.771492,7.972286701,16.98719285,
8.997823609,-3.105285645,15.23599911,8.539685249,17.73991804,
9.000329755,-3.638885021,15.64786339,8.989834785,18.40962363,
9.002835849,-4.179962158,15.96610928,9.286844254,18.93763991,
9.005341943,-4.740181446,16.17936897,9.473484039,19.33877453,
9.007848089,-5.276473045,16.30140305,9.545269012,19.61349203,
9.010354182,-5.800800323,16.36840248,9.468698502,19.7795383,
9.012860276,-6.303592205,16.41865158,9.353842735,19.91988374,
9.015366422,-6.751348972,16.45693588,9.282057762,20.06409848,
9.017872516,-7.165606499,16.48086548,9.238688469,20.20688516,
9.020378609,-7.543672562,16.52872086,9.29402256,20.407951,
9.022884755,-7.893323898,16.56730652,9.449555397,20.6415674,
9.025390849,-8.235795975,16.57926941,9.645767212,20.87441819,
9.027896943,-8.573184013,16.54547119,9.904491425,21.10334219,
9.030403089,-8.910871506,16.46172333,10.30887794,21.36971994,
9.032909182,-9.193224907,16.37797356,10.78774166,21.6593807,
9.035415276,-9.42323494,16.27747536,11.21157074,21.89641247,13.60933893783042
9.037921422,-9.614660263,16.20329857,11.69282722,22.17455264,13.59166399441491
9.040427516,-9.772586823,16.1578331,12.19322586,22.47785089,13.574994867193338
9.042933609,-9.93559742,16.12911987,12.8132658,22.87016363,13.559852873998484
9.045439755,-10.09352398,16.08365631,13.57687569,23.34298139,13.546610610167537
9.047945849,-10.23948669,16.02862167,14.3383913,23.81917853,13.535396016500103
9.050451943,-10.36869907,15.95414543,14.88664722,24.15899299,13.526150129300817
9.052958089,-10.49581718,15.87757492,15.25274849,24.3906929,13.51886028119396
9.055464182,-10.58435154,15.76032639,15.52582932,24.52483968,13.513462112220498
9.057970276,-10.71117115,15.5736866,15.83928967,24.660738,13.509950102302463
9.060476422,-10.85234833,15.33649731,16.12672806,24.75990654,13.508280766250376
9.062982516,-10.98185921,15.06371593,16.28226089,24.75133914,13.508297097678929
9.065488609,-11.07278633,14.80259895,16.29661751,24.643524,13.509848552607982
9.067994755,-11.13021469,14.53699589,16.09322739,24.37617477,13.512712942704493
9.070500849,-11.18046379,14.23759365,15.9373951,24.11871485,13.516813823399877
9.073006943,-11.23071289,13.93370533,15.86321735,23.9148222,13.52213091446547
9.075513089,-11.27139091,13.6534462,15.71725559,23.67473272,13.52852813148656
9.078019182,-11.35513973,13.35434341,15.57847214,23.45136415,13.53593929938885
9.080525276,-11.45803165,13.06690502,15.51865101,23.2993353,13.544348293406108
9.08303137,-11.60668564,12.72712421,15.68136311,23.2937758,13.55383892892688
9.085537516,-11.80528927,12.37747288,15.83211136,23.30713281,13.564394981019571
9.088043609,-12.03021526,11.9727869,15.97568035,23.30871228,13.575926742448193
9.090549755,-12.29372501,11.54207897,16.04297829,23.27514584,13.588334507320889
9.093055849,-12.54736328,11.02971554,16.0070858,23.13693467,13.601467384329304
9.095561943,-12.79412365,10.45513916,15.84886074,22.89510694,13.615145847667502
9.098068089,-13.03579903,9.847063065,15.4540453,22.48831304,13.629120394028517
9.100574182,-13.24905872,9.214759827,14.95125294,21.99975727,13.643222585244025
9.103080276,-13.48834133,8.534899712,14.51067448,21.57173008,13.657437302293483
9.105586422,-13.73958778,7.792825222,14.02463245,21.12332154,13.671632681812925
9.108092516,-13.79492188,6.997809887,13.43330669,20.48714088,13.685509861430926
9.110598609,-13.69173145,6.193522453,12.75823116,19.71283067,13.698878112800319
9.113104755,-13.53380489,5.434698582,12.33440208,19.1007146,13.71180378546867
9.115610849,-13.36152172,4.759324074,12.21476173,18.71848906,13.724448608982343
9.118116943,-13.16501141,4.165605068,12.25783253,18.46413413,13.736895669421017
9.120623089,-12.94487095,3.646063566,12.37268734,18.27421285,13.749164879124839
9.123129182,-12.60479164,3.203391314,12.53300667,18.06152663,13.761198448555657
9.125635276,-12.06640625,2.892025232,12.56411362,17.65839519,13.772765619176429
9.12814137,-11.41256714,2.729313374,12.4301157,17.09396433,13.783694620148836
9.130647516,-10.67049313,2.688635349,12.20279694,16.4315683,13.793849591657203
9.133153609,-9.937990189,2.681456804,11.96321583,15.78202752,13.803226836419752
9.135659703,-9.229117393,2.707777977,11.74068356,15.17736208,13.811893834698957
9.138165849,-8.554041862,2.729313374,11.50110245,14.59096094,13.819896942559767
9.140671943,-7.941180229,2.710170746,11.32881927,14.09785498,13.827324240984355
9.143178036,-7.400103092,2.650350094,11.22353458,13.70232133,13.834281588353283
9.145684182,-6.861418724,2.564208508,11.07996559,13.28231417,13.840723642633325
9.148190276,-6.382555485,2.535494804,10.89063358,12.87523391,13.846683364873105
9.15069637,-5.915955067,2.557030201,10.69442177,12.48629588,13.852137358061231
9.153202516,-5.556732178,2.700599432,10.51735306,12.19775492,13.857206466317715
9.155708609,-5.214259624,2.643171787,10.27537823,11.8219397,13.86181553416423
9.158214755,-4.96779871,2.571387053,9.926026344,11.39372873,13.86591022673431
9.160720849,-4.781158924,2.489732027,9.518947601,10.93931486,13.869495624181525
9.163226943,-4.66839695,2.379662037,9.047262192,10.45512672,13.872553345820064
9.165733036,-4.625326157,2.293520451,8.522934914,9.96465241,13.875115893060494
9.168239182,-4.642076015,2.183450699,7.97467947,9.482185367,13.877200185947624
9.170745276,-4.718646049,2.049452543,7.397710323,9.010660037,13.878839727427458
9.173251422,-4.848157883,1.862513304,6.832705021,8.582508291,13.880113084202756
9.175757516,-4.9821558,1.613659739,6.320342064,8.208075169,13.881105265591993
9.178263609,-5.10897541,1.338186026,5.829514027,7.866104841,13.881873751545934
9.180769755,-5.245366573,1.007976532,5.319543839,7.538397298,13.882446072633508
9.183275849,-5.386841774,0.6655037999,4.891228676,7.30650926,13.882964571348117
9.185781943,-5.518447399,0.2922234535,4.500899315,7.127183938,13.883475842054455
9.188288089,-5.602196217,-0.0765703246,4.172783375,6.985884808,13.884049555312853
9.190794182,-5.695516109,-0.4094717801,3.935894251,6.935260229,13.884759782420739
9.193300276,-5.784050465,-0.742074132,3.766003847,6.941808033,13.885622780798736
9.195806422,-5.819942951,-1.051047325,3.653541088,6.951604054,13.886599799583715
9.198312516,-5.796014786,-1.338186026,3.54556489,6.92499528,13.8876892385262
9.200818609,-5.769693375,-1.625623941,3.437887907,6.910216212,13.888880803476225
9.203324703,-5.695516109,-1.891227245,3.313461065,6.855265748,13.890122118560868
9.205830849,-5.599802971,-2.188236237,3.181855917,6.802233326,13.891414552298421
9.208336943,-5.492125988,-2.441875458,3.045166016,6.73789579,13.892696789584855
9.210843089,-5.36052084,-2.664707184,2.918346405,6.659774305,13.893913639174109
9.213349182,-5.178367138,-2.882453918,2.774776936,6.543960104,13.894962661244666
9.215855276,-5.015655518,-3.088535786,2.619243383,6.446416793,13.895829410829295
9.21836137,-4.826622486,-3.287140131,2.446661234,6.331486876,13.896479617310549
9.220867516,-4.649254322,-3.488137245,2.264806747,6.237949727,13.89691643355299
9.223373609,-4.42672205,-3.703790426,2.061416626,6.128896323,13.89717110829166
9.225879703,-4.201497555,-3.876073599,1.8840487,6.018817804,13.897243320091292
9.228385849,-3.971786499,-4.062713623,1.697408557,5.929749218,13.897138824725484
9.230891943,-3.701397419,-4.242474556,1.51555407,5.83059494,13.896824575474824
9.233398036,-3.411566973,-4.443471432,1.335793257,5.759129379,13.89626597243569
9.235904182,-3.138785124,-4.649254322,1.163509965,5.728987104,13.895570343603662
9.238410276,-2.863311291,-4.869693279,0.9960124493,5.73624485,13.894870755635635
9.240916422,-2.55942297,-5.073082924,0.8668000102,5.747882962,13.89412257647664
9.243422516,-2.255235434,-5.269294739,0.7707880139,5.783222983,13.893249650237612
9.245928609,-1.915155411,-5.468197823,0.6966105103,5.835603986,13.892289821899201
9.248434703,-1.568196177,-5.662016392,0.6463612318,5.91062194,13.89132444286368
9.250940849,-1.244866014,-5.889334679,0.6296114326,6.052302447,13.89057051601955
9.253446943,-0.9098708034,-6.095416546,0.6367899179,6.195762193,13.8900905253375
9.255953036,-0.5578267574,-6.286842346,0.6631109715,6.346280291,13.889937846916732
9.258459182,-0.2033899277,-6.476174355,0.7109674215,6.51825716,13.890089362115324
9.260965276,0.1387837082,-6.650850773,0.7468597889,6.694092654,13.890510926282602
9.26347137,0.4692923427,-6.832705021,0.7875377536,6.893932761,13.891153993037232
9.265977516,0.8018946648,-6.97627449,0.818644464,7.069768,13.89194658253566
9.268483609,1.130010486,-7.115357399,0.8811569214,7.258214115,13.892867637891495
9.270989703,1.431805253,-7.196712971,1.000798106,7.405696504,13.893818014206808
9.273495849,1.70937264,-7.29003334,1.120439172,7.571124412,13.89476531314872
9.276001943,1.984846354,-7.390532017,1.197009563,7.745476772,13.895670666296594
9.278508036,2.214557409,-7.479066372,1.285543919,7.905271753,13.89642283244578
9.281014182,2.451446772,-7.587042332,1.338186026,8.084772381,13.896994210426113
9.283520276,2.681456804,-7.704290867,1.393221021,8.275709829,13.89741785185872
9.28602637,2.887239695,-7.795217991,1.443769336,8.437182378,13.897616415975648
9.288532516,3.083451033,-7.883752346,1.427019596,8.584730995,13.89748253550951
9.291038609,3.244069338,-7.960322857,1.352542996,8.701729622,13.896952002824746
9.293544703,3.3852458,-8.01775074,1.254437327,8.79305573,13.895959440711852
9.296050849,3.555136204,-8.053643227,1.134796143,8.876256245,13.894400285862632
9.298556943,3.691826344,-8.01775074,1.029511929,8.886720626,13.892172772940828
9.301063089,3.833002806,-7.960322857,0.9170492887,8.882546363,13.889236399002984
9.303569182,3.998107433,-7.857431412,0.7444669604,8.847503744,13.8855148728057
9.306075276,4.158426762,-7.730611801,0.5338985324,8.794311775,13.880982997673707
9.30858137,4.33340168,-7.531708241,0.3113660514,8.694938065,13.875538826223764
9.311087516,4.555934429,-7.258926392,0.06699903309,8.570474885,13.869096440138255
9.313593609,4.814658165,-6.899703979,-0.1722832322,8.415255775,13.861585752258403
9.316099703,5.053940296,-6.466603279,-0.347258389,8.214612521,13.852847272631161
9.318605849,5.326722145,-5.99491787,-0.4334000051,8.031241787,13.84282562166575
9.321111943,5.590231895,-5.465805054,-0.4549354017,7.831518611,13.831409520710748
9.323618036,5.843871117,-4.855336189,-0.318544507,7.604379642,13.81853927747004
9.326124182,6.093023777,-4.187140465,-0.1004985496,7.393725987,13.80422882070976
9.328630276,6.308377743,-3.471387386,0.1986042857,7.203166234,13.78852612716655
9.33113637,6.444768906,-2.73649168,0.5673980713,7.02462622,13.771582703680819
9.333642516,6.495316982,-1.999203324,0.9720842242,6.865195144,13.753561285265178
9.336148609,6.404090881,-1.287936807,1.462911963,6.694122246,13.734634042900334
9.338654703,6.128916264,-0.6559324861,2.061416626,6.499484633,13.71492765296515
9.341160849,5.721837044,-0.08135596663,2.743670225,6.346161379,13.694602319328807
9.343666943,5.168796062,0.423828721,3.466601849,6.23806155,13.673827907436214
9.346173036,4.510470867,0.8353942037,4.338187218,6.313643897,13.652844011263117
9.348679182,3.749253988,1.137188911,5.26690197,6.564324828,13.631893206235564
9.351185276,2.923131943,1.299900889,6.21505785,6.990092042,13.611183669987229
9.35369137,2.066202402,1.338186026,7.218248844,7.626470388,13.590935610798567
9.356197516,1.237687469,1.280758262,8.187939644,8.379413321,13.571244735089957
9.358703609,0.3664009571,1.158724308,9.219545364,9.299296124,13.55229570031285
9.361209703,-0.5075774789,1.031904817,10.28973579,10.35379762,13.534223257678047
9.363715849,-1.376471281,0.9529415965,11.39581776,11.51813497,13.517128769349144
9.366221943,-2.260020971,0.926620543,12.56889915,12.80404414,13.501157340218407
9.368728036,-3.090928555,0.9768698215,13.76142216,14.138064,13.486372731658394
9.371234182,-3.900001764,1.051047325,14.92253971,15.45952476,13.472798024281735
9.373740276,-4.692325115,1.12283206,15.98285866,16.695222,13.460351001406343
9.37624637,-5.403591633,1.137188911,16.65105438,17.54279377,13.448625999420669
9.378752516,-6.030810356,1.12283206,16.88794327,17.9675834,13.437234269746593
9.381258609,-6.629314899,1.115653515,16.70848274,18.01016086,13.42578621922511
9.383764703,-7.189534664,1.137188911,16.08605003,17.65626271,13.4138790541349
9.386270849,-7.721040249,1.15393877,15.13310814,17.02812377,13.401203143073294
9.388776943,-8.286046028,1.185045362,14.03181076,16.3387455,13.387702104905895
9.391283036,-8.853444099,1.216152072,12.88026524,15.67685335,13.37344317476997
9.393789182,-9.49262619,1.244866014,11.86271763,15.244137,13.358666232174198
9.396295276,-10.2347002,1.2352947,10.85952663,14.97345518,13.343551944438003
9.39880137,-11.05603695,1.225723386,9.995418549,14.9548234,13.328412789747427
9.401307516,-12.0158577,1.130010486,9.29402256,15.23274812,13.313598003214475
9.403813609,-13.10040474,1.015154958,8.601898193,15.70489721,13.29951612944644
9.406319703,-14.33599854,0.794716239,7.996214867,16.43447231,13.28680935480708
9.408825849,-15.69332695,0.4621138871,7.43360281,17.37102503,13.275903647289516
9.411331943,-17.22802353,-0.0143569354,6.875775814,18.5494284,13.267125457984381
9.413838036,-18.92543221,-0.6631109715,6.325127602,19.96544363,13.260675432059548
9.416344182,-20.74487495,-1.513161182,5.858228207,21.60921867,13.256729019508198
9.418850276,-22.6145668,-2.494517565,5.274080276,23.35502456,13.255324330109175
9.42135637,-24.48934364,-3.540779352,4.476971149,25.14574201,13.25652190540651
9.423862516,-26.33989334,-4.642076015,3.595814228,26.98645458,13.260402089056145
9.426368609,-28.14737129,-5.669195175,2.774776936,28.84638056,13.266987564469918
9.428874703,-29.93092155,-6.5288167,1.951047778,30.6967767,13.276336621790787
9.431380849,-31.57568741,-7.194320202,1.120439172,32.40428463,13.288352517749614
9.433886943,-33.13909912,-7.584649563,0.4046861231,33.9983907,13.30292679368018
9.436393036,-34.63072205,-7.661220074,0.01674975827,35.46803466,13.319958643029208
9.438899182,-35.85644913,-7.220641613,-0.06221338734,36.57631036,13.339070249381729
9.441405276,-37.00081635,-6.516852379,0.2368894368,37.57107786,13.360128531671503
9.44391137,-38.12125397,-5.731408596,0.3424727321,38.55121705,13.383093955919428
9.446417516,-39.1914444,-4.79073,0.323330164,39.48449,13.407912111309725
9.448923609,-40.22813416,-3.830610037,0.3496512175,40.41161475,13.434591363399631
9.451429755,-41.14249039,-2.872882605,0.3927220106,41.24454146,13.463029200869933
9.453935849,-41.93272018,-1.941476464,0.4094717801,41.97963816,13.493141008989163
9.456441943,-42.5814743,-1.070189953,0.3161516786,42.59609386,13.524819592723066
9.458948036,-42.97898483,-0.1986042857,0.1220339537,42.97961695,13.55781062226951
9.461454182,-43.08426666,0.6918248534,-0.1411765367,43.09005206,13.591863825162909
9.463960276,-42.94309235,1.534696579,-0.4166502357,42.97252694,13.626735202713407
9.46646637,-42.54319,2.334198475,-0.632004261,42.61186369,13.66215471529786
9.468972516,-41.82265091,3.131606579,-0.7013961077,41.94559626,13.69776380870592
9.471478609,-40.60620117,3.524029493,-0.8258228898,40.76719687,13.73301287157547
9.473984703,-39.15794373,3.684647799,-1.02711916,39.34432818,13.76761123139199
9.476490849,-37.56581879,3.677469254,-1.189831018,37.76413933,13.801324977637343
9.478996943,-35.93062592,3.540779352,-1.287936807,36.12763178,13.834033934331249
9.481503036,-34.28346634,3.315854073,-1.321436286,34.4687851,13.865599618002172
9.484009182,-32.65066147,3.00688076,-1.163509965,32.80946177,13.89594212014925
9.486515276,-31.0657177,2.669492722,-0.8572286963,31.19198372,13.92496980511958
9.489021422,-29.48346329,2.37248373,-0.4022932947,29.58149973,13.952471073774571
9.491527516,-27.91048241,2.152343988,0.2273181528,27.99427238,13.978217344447684
9.494033609,-26.33271408,2.015953064,0.9194421172,26.42576908,14.002023512781404
9.496539703,-24.7860527,1.912762642,1.750050664,24.92127097,14.023850065492516
9.499045849,-23.27528572,1.829013824,2.57617259,23.48873948,14.043744412838148
9.501551943,-21.78156471,1.800299883,3.397209883,22.11828827,14.06178257849199
9.504058036,-20.34976006,1.785943031,4.172783375,20.8498069,14.078072431800718
9.506564182,-18.98525238,1.819442511,4.797908306,19.66647155,14.092723928435941
9.509070276,-17.71885109,1.85294199,5.300401211,18.5872357,14.105860665966963
9.51157637,-16.53350639,1.891227245,5.602196217,17.55899133,14.117537851588775
9.514082516,-15.44686699,1.955833435,5.724229813,16.58908651,14.127855001723892
9.516588609,-14.45803261,2.056631088,5.673980713,15.6671151,14.136939164896303
9.519094703,-13.56491184,2.164308071,5.492125988,14.79373214,14.144877637844125
9.521600849,-12.77019501,2.319841623,5.211866856,13.98653287,14.15175094809527
9.524106943,-12.07358456,2.458625317,4.80508709,13.22517087,14.157655390247868
9.526613036,-11.45324516,2.638386011,4.352544308,12.53325766,14.162708013174973
9.529119182,-10.90020466,2.822633505,3.93828702,11.92861376,14.166984761650836
9.531625276,-10.39053345,3.021237612,3.512065411,11.37654014,14.17059698853151
9.53413137,-9.954740524,3.212962627,3.045166016,10.8946328,14.173606758811601
9.536637516,-9.581160545,3.392424345,2.588136673,10.48835696,14.176094836161854
9.539143609,-9.250652313,3.557528973,2.097309113,10.13061134,14.178161230182656
9.541649703,-8.930013657,3.725325823,1.601695657,9.807579996,14.179867508979699
9.544155849,-8.652147293,3.900001764,1.063011408,9.549851297,14.181254682321322
9.546661943,-8.376973152,4.057928085,0.4453641176,9.318734288,14.182366486720088
9.549168036,-8.152048111,4.184747696,-0.1339980662,9.164385258,14.183301780786136
9.551674182,-7.917252064,4.340580463,-0.6559324861,9.052831956,14.184114608410475
9.554180276,-7.697112083,4.493721008,-1.20179522,8.993518482,14.184862070530007
9.55668637,-7.48385191,4.620540619,-1.72372961,8.962626779,14.185586907101396
9.559192516,-7.27567625,4.730610371,-2.126022816,8.934993699,14.186328689204196
9.561698609,-7.103393078,4.821836948,-2.470589399,8.933762743,14.187103006794306
9.564204703,-6.894918442,4.896014214,-2.772384167,8.899267917,14.187932390646472
9.566710849,-6.672386169,4.953442097,-3.045166016,8.850444162,14.188781634445178
9.569216943,-6.44237566,5.010869503,-3.263211966,8.789856066,14.18968872691915
9.571723089,-6.176772594,5.044369221,-3.442673683,8.686206457,14.190651501516225
9.574229182,-5.901597977,5.080261707,-3.564707518,8.564172895,14.191624346349268
9.576735276,-5.592624664,5.087440014,-3.626920938,8.38534746,14.192512589762494
9.579241422,-5.271687508,5.120939732,-3.607778311,8.187232576,14.193285708270192
9.581747516,-4.939085007,5.137689114,-3.557528973,7.965326266,14.193923345813994
9.584253609,-4.60379076,5.15922451,-3.44985199,7.727481198,14.194352837215297
9.586759755,-4.249652863,5.185545921,-3.342175007,7.491299602,14.194555070678904
9.589265849,-3.871287823,5.185545921,-3.229712248,7.232412952,14.194529936224885
9.591771943,-3.492922783,5.183153152,-3.124428272,6.987677597,14.19431459451708
9.594278089,-3.107678413,5.154438972,-2.970988512,6.712129243,14.19395797740137
9.596784182,-2.688635349,5.101797104,-2.810669184,6.415368656,14.193493056588316
9.599290276,-2.307877541,5.049154758,-2.664707184,6.157996987,14.192972047990587
9.601796422,-1.922333837,4.96779871,-2.566601276,5.912853246,14.192435538124514
9.604302516,-1.539482236,4.888835907,-2.420340061,5.668224421,14.191917952299905
9.606808609,-1.165902853,4.821836948,-2.238485575,5.442449695,14.19143102569091
9.609314755,-0.8042874932,4.733003139,-2.087737799,5.235154841,14.191012458568993
9.611820849,-0.4357928336,4.632504463,-1.941476464,5.041759996,14.190627874695544
9.614326943,-0.0765703246,4.515256405,-1.824228168,4.870442672,14.19025287384532
9.616833089,0.2608176768,4.414757729,-1.706979871,4.740452715,14.189864021118815
9.619339182,0.5913262963,4.292723656,-1.613659739,4.623963768,14.18938363127233
9.621845276,0.9290133715,4.172783375,-1.572981834,4.555157384,14.188808629740773
9.62435137,1.264008522,4.04835701,-1.53230381,4.509419806,14.18801102399125
9.626857516,1.544267893,3.895216227,-1.522732496,4.458271754,14.186845541144615
9.629363609,1.795514345,3.744468451,-1.570588946,4.439782132,14.185264359807675
9.631869703,2.054238319,3.569493294,-1.680658817,4.448122245,14.18320105264836
9.634375849,2.260020971,3.397209883,-1.781157374,4.452106397,14.180627839087162
9.636881943,2.46819663,3.217748165,-1.927119493,4.489954054,14.177698119330948
9.639388089,2.67188549,3.030808926,-2.082952023,4.5457083,14.174364704079354
9.641894182,2.813062191,2.844168901,-2.255235434,4.592243732,14.17055601517171
9.644400276,2.937488794,2.645564556,-2.458625317,4.65539372,14.166334258423065
9.646906422,3.059522867,2.465803623,-2.662314177,4.746449669,14.161802429049478
9.649412516,3.179463148,2.293520451,-2.91116786,4.883044161,14.157061090163303
9.651918609,3.253640652,2.137987137,-3.155534744,5.011443506,14.152004597420452
9.654424755,3.351746321,1.987239242,-3.406781197,5.175855613,14.146595966115637
9.656930849,3.459423304,1.850549221,-3.651148319,5.359386724,14.140800976222586
9.659436943,3.569493294,1.738086581,-3.952643871,5.602287114,14.134573087440804
9.661943089,3.66789794,1.632802367,-4.259224415,5.853247943,14.1278445805751
9.664449182,3.770789385,1.539482236,-4.517649174,6.082599132,14.120497044323516
9.666955276,3.892823458,1.496411443,-4.783551693,6.346312983,14.112433860457077
9.669461422,3.995714664,1.458126307,-5.070690155,6.618441407,14.103506981282166
9.671967516,4.1129632,1.431805253,-5.386841774,6.927091515,14.093506475837163
9.674473609,4.240081787,1.434198022,-5.685945034,7.236379513,14.082072136480171
9.676979755,4.383651257,1.460519075,-5.968596935,7.548090069,14.068760894837768
9.679485849,4.512863636,1.505982757,-6.229414463,7.838336993,14.053046052477896
9.681991943,4.65403986,1.608874083,-6.476174355,8.13568664,14.034944219245363
9.684498089,4.795515537,1.733300924,-6.7202425,8.435814165,14.014781016783527
9.687004182,4.939085007,1.912762642,-6.911668301,8.707719582,13.993107654942516
9.689510276,5.085047245,2.164308071,-7.029215813,8.941577593,13.97031644928898
9.692016422,5.228616714,2.470589399,-7.110571384,9.165286146,13.946654748694554
9.694522516,5.37487793,2.899203777,-7.165606499,9.414914328,13.92278791449315
9.697028609,5.554339409,3.433102369,-7.196712971,9.71748711,13.898885777947777
9.699534755,5.719444275,4.089034557,-7.146463871,10.02517792,13.875018472176471
9.702040849,5.923133373,4.79073,-6.959524632,10.31841005,13.851296440289948
9.704546943,6.042774677,5.506483078,-6.643671989,10.53446056,13.827541847559601
9.707053089,6.00927496,6.234200478,-6.20070076,10.65013291,13.803620433288705
9.709559182,5.855835438,6.923632145,-5.671587944,10.6955318,13.779424997431176
9.712065276,5.606981754,7.548458099,-5.104189873,10.69907558,13.75490089439768
9.714571422,5.235795021,8.094321251,-4.558327198,10.66348596,13.729996337337555
9.717077516,4.80508709,8.525327682,-4.093820572,10.60798948,13.704740555769584
9.719583609,4.352544308,8.796015739,-3.833002806,10.53595963,13.679104623822523
9.722089755,3.830610037,9.016156197,-3.36849618,10.35912218,13.652987300801701
9.724595849,3.215355396,9.253045082,-2.760420084,10.17729201,13.626286707791209
9.727101943,2.585743904,9.444769859,-2.099701881,10.01491374,13.598993619031232
9.729608089,1.987239242,9.588339806,-1.402792215,9.892077943,13.571130502737994
9.732114182,1.434198022,9.707980156,-0.6822535396,9.837035761,13.542721110038096
9.734620276,0.8979067206,9.813264847,0.04785645381,9.854374342,13.513897685348473
9.737126422,0.3951148391,9.926026344,0.7516453862,9.962283147,13.484829783923935
9.739632516,-0.1004985496,10.06002426,1.417448282,10.15988916,13.455669333613777
9.742138609,-0.6008976102,10.20837975,2.025524378,10.42472273,13.426521792326469
9.744644755,-1.091725349,10.4168539,2.597707987,10.79123701,13.397572528197369
9.747150849,-1.647159338,10.57717323,3.172284603,11.16481603,13.368964185148718
9.749656943,-2.18105793,10.76381397,3.720540047,11.59565105,13.340925878338076
9.752163089,-2.741277456,10.99143124,4.203890324,12.08299866,13.31384074167573
9.754669182,-3.258426189,11.27139091,4.644468784,12.61874339,13.288289941492524
9.757175276,-3.789932013,11.582757,5.058726311,13.19524748,13.264743807550033
9.759681422,-4.376472473,11.91296673,5.506483078,13.83450915,13.243436357202452
9.762187516,-4.970191956,12.30808163,5.997310638,14.56569313,13.224537002667258
9.764693609,-5.56630373,12.76062393,6.44237566,15.34019115,13.208148610692952
9.767199755,-6.203093529,13.2586298,6.887740135,16.17747192,13.194372592011915
9.769705849,-6.83509779,13.78774357,7.34028244,17.04993199,13.183223062341042
9.772211943,-7.462316513,14.35992718,7.728219032,17.93374043,13.174557468126316
9.774718089,-8.111070633,14.96800327,8.06799984,18.83940578,13.16827987964587
9.777224182,-8.752944946,15.60239983,8.367402077,19.74999603,13.164326573703308
9.779730276,-9.420842171,16.16740608,8.601898193,20.59441524,13.1624915763008
9.782236422,-10.10548782,16.67737579,8.750552177,21.37353295,13.162710725696082
9.784742516,-10.83320522,17.13709641,8.824729919,22.11140581,13.164899155457993
9.787248609,-11.56122208,17.51516342,8.731410027,22.73060331,13.16887225616936
9.789754755,-12.36550903,17.78106499,8.525327682,23.27559447,13.174528446498732
9.792260849,-13.19641685,17.93181229,8.257331848,23.74613314,13.181757253463129
9.794766943,-14.03420353,17.94377708,7.807182312,24.08090738,13.190369397220863
9.797273089,-14.90578938,17.76910019,7.220641613,24.29117419,13.200234697612569
9.799779182,-15.79621887,17.44098473,6.509674072,24.41483843,13.211214369136082
9.802285276,-16.72762489,16.92862129,5.824728489,24.50141048,13.223226484356218
9.804791422,-17.67069626,16.21286964,5.161617756,24.5306532,13.23616122461097
9.807297516,-18.60688782,15.31735516,4.532006264,24.52298359,13.249959855668562
9.809803609,-19.49761581,14.28066444,3.806681633,24.4660014,13.264513650485442
9.812309755,-20.36172485,13.16022587,3.0981071,24.44155583,13.279805879311354
9.814815849,-21.2093811,11.99910831,2.475374937,24.49375284,13.295841490051599
9.817321943,-21.97299194,10.78295612,1.881655931,24.54842453,13.31252492186677
9.819828089,-22.70788765,9.617053032,1.319043517,24.6956625,13.329865455334154
9.822334182,-23.41197586,8.472685814,0.7923234105,24.91053582,13.347818919563796
9.824840276,-24.1516571,7.440781116,0.36161533,25.27446399,13.366462403921867
9.827346422,-24.86262321,6.516852379,0.04785645381,25.7025619,13.385778244941983
9.829852516,-25.58346176,5.702694416,-0.1531406492,26.21178535,13.405754560552703
9.832358609,-26.30160713,5.015655518,-0.2153540403,26.77643956,13.426401242260741
9.834864755,-27.01496696,4.431507587,-0.2009970993,27.37676203,13.44771531801794
9.837370849,-27.72354317,3.911965847,-0.02632104978,27.99819664,13.469648957289463
9.839876943,-28.39173889,3.425923824,0.2632105052,28.59889982,13.49214328315851
9.842383089,-29.0022068,2.97577405,0.5817549825,29.16027554,13.515120435920858
9.844889182,-29.55285454,2.54506588,0.9146564603,29.67634021,13.538586272621489
9.847395276,-30.07239723,2.111665964,1.328614831,30.1757092,13.562505453096035
9.849901422,-30.50549698,1.64476645,1.888834357,30.60814104,13.5867851264273
9.852407516,-30.87429237,1.165902853,2.592922449,31.004911,13.611441785373078
9.854913609,-31.11835861,0.6870391965,3.363710403,31.30716872,13.636425907416452
9.857419755,-31.31247711,0.2081755698,4.220939159,31.59637459,13.661708283568862
9.859925849,-31.39143944,-0.3017947674,5.018048286,31.79141958,13.687236667144845
9.862431943,-31.34597588,-0.8210372925,5.923133373,31.91124903,13.712947247865154
9.864938089,-31.19044304,-1.390828133,6.981060028,31.99239502,13.73878297362787
9.867444182,-30.78097153,-1.8840487,8.216653824,31.91443635,13.764614762089831
9.869950276,-29.74667358,-2.207378864,9.511769295,31.30831944,13.789935161524156
9.872456422,-28.21915627,-2.34137702,10.46949673,30.18962054,13.814250889449097
9.874962516,-26.53371048,-2.384447813,10.97946644,28.81444198,13.837373535220582
9.877468661,-24.89133835,-2.353341103,11.24507046,27.41475057,13.859299193728566
9.879974755,-23.33301163,-2.295913219,11.43649578,26.08628155,13.880066221493536
9.882480849,-21.94427681,-2.19780755,11.63539886,24.93519901,13.899849942099854
9.884986943,-20.78555298,-2.118844509,11.72632694,23.95903709,13.918862378268903
9.887493089,-19.82064819,-2.066202402,11.49870968,23.00755553,13.937112111154645
9.889999182,-18.87518311,-1.881655931,10.92413235,21.8894914,13.95442081127428
9.892505276,-17.97488403,-1.838585138,10.16770172,20.73304149,13.970745365883676
9.895011422,-17.05065536,-1.762014747,9.361021042,19.53095644,13.985981337572177
9.897517516,-16.17697716,-1.649552107,8.580363274,18.38581644,14.000116306656706
9.900023609,-15.32214069,-1.546660781,7.871788502,17.29523661,14.013169440356236
9.902529755,-14.53221035,-1.424626827,7.244569778,16.30026044,14.025185021861985
9.905035849,-13.76381493,-1.271187067,6.763313293,15.38833729,14.036211220123258
9.907541995,-12.98554897,-1.063011408,6.370591164,14.50306544,14.046216725474949
9.910048089,-12.20040417,-0.8572286963,6.021239281,13.63231548,14.05520399886116
9.912554182,-11.42453194,-0.6152545214,5.731408596,12.7963867,14.063185414129823
9.915060328,-10.69681454,-0.399900496,5.477769375,12.02446335,14.070195717083722
9.917566422,-10.00259686,-0.1890329868,5.202295303,11.27614977,14.076270449223376
9.920072516,-9.317950249,-0.01914258115,4.965405941,10.55840042,14.081438364344802
9.922578609,-8.642576218,0.1244267747,4.802694321,9.888148383,14.085747273477105
9.925084755,-8.034500122,0.2201396823,4.615755081,9.268594751,14.089216592813399
9.927590849,-7.462316513,0.2994019389,4.374079704,8.654962884,14.091867361417682
9.930096995,-6.945167542,0.3544368446,4.062713623,8.053981602,14.093732755952908
9.932603089,-6.485745907,0.3448655605,3.708575964,7.47912882,14.094797008700029
9.935109182,-6.059524059,0.318544507,3.375674486,6.943664786,14.095077338927142
9.937615276,-5.705087185,0.2727817893,3.033201694,6.467050503,14.094651578284244
9.940121422,-5.38923502,0.1722832322,2.774776936,6.06406816,14.093596295995198
9.942627516,-5.130510807,0.06699903309,2.592922449,5.748902229,14.091973905211203
9.945133661,-4.907978535,-0.05024927482,2.451446772,5.48638037,14.089815336345966
9.947639755,-4.721039295,-0.2129612118,2.329412937,5.268750244,14.087160435744554
9.950145849,-4.548755646,-0.36161533,2.228914261,5.078385802,14.084078614859994
9.952651995,-4.381258488,-0.5291129351,2.133201361,4.901625698,14.080622542080407
9.955158089,-4.244867325,-0.6966105103,2.032702923,4.757735384,14.076849239401414
9.957664182,-4.134498596,-0.8883354068,1.972882271,4.666420779,14.072857068372727
9.960170328,-4.043570995,-1.094118118,1.951047778,4.621054889,14.068733437721011
9.962676422,-3.976572037,-1.299900889,1.943869352,4.613187135,14.064531899967413
9.965182516,-3.921537161,-1.534696579,1.939083695,4.636139868,14.060297470855028
9.967688609,-3.876073599,-1.764407635,1.934298038,4.677455478,14.056058182109485
9.970194755,-3.813860178,-1.965703845,1.936690807,4.70747197,14.051833455666161
9.972700849,-3.739682674,-2.183450699,1.936690807,4.743780638,14.04767006342855
9.975206995,-3.679862022,-2.377269268,1.905584097,4.777451667,14.043641700660897
9.977713089,-3.614956856,-2.583351135,1.848156333,4.812203029,14.039895156369932
9.980219182,-3.526422262,-2.810669184,1.790728688,4.852033024,14.036570166786834
9.982725328,-3.466601849,-3.042773008,1.706979871,4.918289971,14.033834491201596
9.985231422,-3.411566973,-3.284747362,1.58016026,4.992520495,14.031705157035258
9.987737516,-3.339782238,-3.538386583,1.446162224,5.075993517,14.030174981982348
9.990243661,-3.282354355,-3.833002806,1.285543919,5.207531448,14.029213088418544
9.992749755,-3.19382,-4.122534275,1.130010486,5.335981516,14.02868498415652
9.995255849,-3.105285645,-4.371686935,0.9625129104,5.44801585,14.028404168357705
9.997761995,-3.028416157,-4.60379076,0.8162516356,5.57067864,14.028227952548507
10.00026809,-2.932703257,-4.85294342,0.6798607111,5.710868482,14.027996911272387
10.00277418,-2.829811811,-5.092225552,0.4860421121,5.845924468,14.027563642092387
10.00528033,-2.714956284,-5.37487793,0.2799602449,6.028157108,14.026753080429174
10.00778642,-2.595315218,-5.63090992,0.05264209956,6.200449887,14.025383073172815
10.01029252,-2.463410854,-5.93031168,-0.2153540403,6.425213383,14.02342742258664
10.01279866,-2.319841623,-6.207879066,-0.5003990531,6.646038435,14.02086285144937
10.01530476,-2.190629244,-6.459424496,-0.7564310431,6.862594934,14.017726002659133
10.01781085,-2.018345833,-6.715456963,-0.9984052777,7.082929847,14.014082587359008
10.020317,-1.857727647,-6.973881721,-1.244866014,7.323651389,14.009943264845424
10.02282309,-1.678265929,-7.22781992,-1.455733418,7.561555204,14.005276038756906
10.02532918,-1.491625786,-7.529315472,-1.663909078,7.853924648,14.000151540592896
10.02783533,-1.28315115,-7.795217991,-1.826620936,8.10854145,13.99452067503679
10.03034142,-1.067797065,-8.024929047,-1.982453585,8.334854467,13.988349358011186
10.03284752,-0.8234301209,-8.211868286,-2.092523336,8.514192377,13.981612652595983
10.03535366,-0.5721837282,-8.393722534,-2.188236237,8.693120845,13.97423298990405
10.03785976,-0.3017947674,-8.577970505,-2.23130703,8.868561841,13.966181306072277
10.04036585,0.002392822644,-8.697610855,-2.252842426,8.984639075,13.957382745210648
10.042872,0.3113660514,-8.776873589,-2.260020971,9.068525437,13.947756503084927
10.04537809,0.6056832075,-8.822337151,-2.252842426,9.125556637,13.937261306128827
10.04788418,0.9577272534,-8.865407944,-2.293520451,9.207221924,13.925982906186103
10.05039033,1.347757339,-8.848658562,-2.221735716,9.222327135,13.913968034530582
10.05289642,1.74047935,-8.760123253,-2.094916344,9.173750719,13.901273122499207
10.05540252,2.176272154,-8.661719322,-1.936690807,9.138507175,13.887970527266742
10.05790866,2.621636391,-8.522934914,-1.793121457,9.095530851,13.874055781390359
10.06041476,3.061915636,-8.321938515,-1.623231053,9.014702827,13.859464838599335
10.06292085,3.516851187,-8.087141991,-1.431805253,8.934213683,13.844181222364249
10.065427,3.976572037,-7.828717709,-1.211366415,8.863935622,13.82823446108182
10.06793309,4.457828522,-7.531708241,-0.9984052777,8.808840857,13.811632304949734
10.07043918,4.910371304,-7.182356358,-0.7803592682,8.735384924,13.794350294419194
10.07294533,5.334199905,-6.758527756,-0.5195416212,8.625619372,13.776308775321555
10.07545142,5.740979671,-6.212665081,-0.2297109663,8.462199603,13.757422357138266
10.07795752,6.133701801,-5.528018475,0.1459621787,8.258485999,13.737677411917025
10.08046366,6.516852379,-4.687539577,0.6056832075,8.050418894,13.717083411588378
10.08296976,6.808776855,-3.62452817,1.182652593,7.803544956,13.695606628639041
10.08547585,6.909275532,-2.427518606,1.905584097,7.567178187,13.673294000674781
10.087982,6.820741177,-1.156331539,2.691028118,7.423021296,13.65025862913527
10.09048809,6.562315941,0.06221338734,3.497708559,7.436519762,13.626690332018603
10.09299423,6.078666687,1.103689432,4.335794449,7.547677296,13.602654428262486
10.09550033,5.377270699,1.943869352,5.137689114,7.686970642,13.578178498625075
10.09800642,4.520041943,2.542673111,5.93031168,7.878106519,13.553343593097066
10.10051257,3.564707518,2.91116786,6.693921566,8.123461327,13.528313448651238
10.10301866,2.535494804,3.061915636,7.443173885,8.438299518,13.503259790199342
10.10552476,1.513161182,3.049951553,8.185546875,8.865384306,13.478340198257804
10.1080309,0.5626124144,2.91116786,8.953942299,9.432100176,13.453979548377118
10.110537,-0.3592225015,2.700599432,9.729516029,10.10374981,13.430717461028333
10.11304309,-1.247258782,2.451446772,10.54845905,10.90115747,13.409062353147691
10.11554923,-2.123630047,2.145165443,11.42453194,11.81657604,13.389226056420773
10.11805533,-2.978166819,1.824228168,12.42533016,12.90682438,13.371540820228963
10.12056142,-3.835395575,1.51555407,13.49551964,14.11156312,13.356272592528114
10.12306757,-4.670789719,1.254437327,14.58963776,15.3703422,13.343517180404262
10.12557366,-5.508875847,1.039083242,15.73400497,16.70288357,13.3333558457699
10.12807976,-6.34187746,0.8572286963,16.79223061,17.97034389,13.325738875656757
10.1305859,-7.146463871,0.7229315639,17.60609055,19.01496779,13.320475531098607
10.133092,-7.864609718,0.6511468887,18.13041687,19.77341888,13.317103486867214
10.13559809,-8.5588274,0.6559324861,18.32453537,20.23542365,13.31496241183661
10.13810418,-9.17886734,0.6726822853,18.24317932,20.43324984,13.313669010856959
10.14061033,-9.74865818,0.6750751138,17.89352798,20.38799663,13.312944034109298
10.14311642,-10.26819992,0.6726822853,17.35484314,20.17619913,13.312697475430129
10.14562257,-10.70638561,0.6391827464,16.51197243,19.68960337,13.312686331477732
10.14812866,-11.10389328,0.5482555032,15.54497242,19.11133689,13.312819126177816
10.15063476,-11.42453194,0.4621138871,14.43889046,18.41779131,13.313050019966127
10.1531409,-11.74546909,0.323330164,13.30170155,17.74812245,13.313397594991008
10.155647,-12.11426258,0.1722832322,12.3176527,17.27743058,13.314048440055469
10.15815309,-12.51386452,0.02871387079,11.38863945,16.9203646,13.315039819663694
10.16065923,-12.97119236,-0.07178468257,10.58435154,16.74172876,13.316489583152734
10.16316533,-13.41894913,-0.1770688742,9.875777245,16.66224851,13.318557336022204
10.16567142,-13.87149239,-0.2153540403,9.147761345,16.61764773,13.321225771333799
10.16817752,-14.32882023,-0.2679961324,8.465507507,16.64487093,13.324536401497069
10.17068366,-14.84566975,-0.3209373355,7.826324463,16.78535867,13.328635621086036
10.17318976,-15.42024612,-0.3783650696,7.160820961,17.00601386,13.33355016185752
10.1756959,-16.0573349,-0.4429712892,6.581458569,17.35943042,13.339434895223379
10.178202,-16.76830292,-0.5626124144,6.07148838,17.84251907,13.346448626678011
10.18070809,-17.6132679,-0.7468597889,5.724229813,18.53515073,13.354863551431967
10.18321423,-18.52553177,-0.9433703423,5.401198864,19.31989193,13.36482996322669
10.18572033,-19.53590202,-1.211366415,5.044369221,20.21297943,13.376458214534447
10.18822642,-20.6252346,-1.498804331,4.677968502,21.20212504,13.389902037198805
10.19073257,-21.76003075,-1.840977907,4.331008911,22.26310347,13.405275468629153
10.19323866,-22.9977169,-2.226521492,4.055535316,23.45846857,13.422792018028732
10.19574476,-24.27368927,-2.64077878,3.868895054,24.72153014,13.442508874321831
10.1982509,-25.52334213,-2.990130901,3.54556489,25.94133587,13.464198877430075
10.200757,-26.82832718,-3.282354355,3.39960289,27.2413342,13.4877499066077
10.20326309,-28.09951401,-3.500101328,3.303889751,28.50875452,13.512883228262352
10.20576923,-29.35873795,-3.64127779,3.234498024,29.75997942,13.539348643680993
10.20827533,-30.5895462,-3.679862022,3.131606579,30.96883403,13.566903251367485
10.21078142,-31.69532967,-3.612564087,2.937488794,32.03550191,13.59527229973596
10.21328757,-32.76791,-3.466601849,2.822633505,33.0714456,13.624344569539234
10.21579366,-33.8333168,-3.234498024,3.00688076,34.12032584,13.654101402370896
10.21829976,-34.81736374,-2.925524712,3.212962627,35.08747129,13.684477989449027
10.2208059,-35.75594711,-2.508874655,3.569493294,36.02115335,13.71545042995401
10.223312,-36.56023788,-1.996810555,4.024428368,36.83523137,13.746956371230484
10.22581814,-37.24966812,-1.450947881,4.472185612,37.54521899,13.778923576797522
10.22832423,-37.79792404,-0.818644464,4.953442097,38.12990728,13.811246575044985
10.23083033,-38.1762886,-0.1674975902,5.372485161,38.55282952,13.843837890008183
10.23333642,-38.31507111,0.5578267574,5.690730572,38.73938899,13.876444520184245
10.23584257,-38.17389679,1.37886405,5.94466877,38.65859217,13.908842257648915
10.23834866,-37.71656799,2.209771633,6.061916828,38.2644669,13.940721685798675
10.24085476,-36.54587936,2.758027315,5.913562298,37.12382297,13.971392182359004
10.2433609,-34.8867569,2.944667339,5.573482037,35.45166533,14.000323889692625
10.245867,-33.09363556,2.908775091,5.147260666,33.61761412,14.027384216797978
10.24837314,-31.27658463,2.65513587,4.694717884,31.73822409,14.05256988435218
10.25087923,-29.47149849,2.264806747,4.223331928,29.85858512,14.075866092010862
10.25338533,-27.75225639,1.819442511,3.77796793,28.06726114,14.097395409324015
10.25589142,-26.12214661,1.342971683,3.404388428,26.3772625,14.117283922098155
10.25839757,-24.546772,0.9050851464,3.049951553,24.75207869,14.135621539162827
10.26090366,-23.01686096,0.5075774789,2.731706142,23.18395441,14.152443758445527
10.26340976,-21.50609207,0.2297109663,2.451446772,21.64657836,14.167807752281243
10.2659159,-20.03390694,0.1004985496,2.221735716,20.15697489,14.181794199848996
10.268422,-18.61406708,0.05264209956,2.082952023,18.73032177,14.194422391663723
10.27092814,-17.22084618,0.1004985496,1.963011861,17.33265873,14.20573898656891
10.27343423,-15.87039661,0.2201396823,1.85294199,15.97971665,14.215780680889717
10.27594033,-14.60878086,0.4214358926,1.726122379,14.71643927,14.224639903316344
10.27844647,-13.3710928,0.6870391965,1.642373681,13.48908954,14.23237644622661
10.28095257,-12.18604755,0.9768698215,1.582553029,12.32714499,14.239005004853505
10.28345866,-11.09192944,1.28315115,1.54905355,11.27284092,14.244666039858842
10.28596481,-10.08156013,1.58016026,1.537089467,10.319758,14.249441157898376
10.2884709,-9.147761345,1.857727647,1.539482236,9.460586408,14.253433645836761
10.290977,-8.28126049,2.145165443,1.448554993,8.676365694,14.256708813571565
10.29348314,-7.48385191,2.386840582,1.323829174,7.966026051,14.259318972578804
10.29598923,-6.741777897,2.612065077,1.156331539,7.321991246,14.261285226057682
10.29849533,-6.073881149,2.822633505,0.950548768,6.764823359,14.262701740955805
10.30100147,-5.480162144,3.00688076,0.71336025,6.291453876,14.263655881500272
10.30350757,-4.927121162,3.212962627,0.4980062246,5.903190832,14.264197291081093
10.30601366,-4.436293125,3.378067255,0.2727817893,5.582691553,14.26438513242769
10.30851981,-3.993321896,3.524029493,0.1100698411,5.327055378,14.264264179519918
10.3110259,-3.602992773,3.689433336,0.02632104978,5.15695337,14.26389294061212
10.313532,-3.279961586,3.79471755,-0.02153540403,5.015824266,14.263299424145512
10.31603814,-3.018844843,3.914358854,-0.06939185411,4.94372781,14.262531936126077
10.31854423,-2.777169704,4.024428368,-0.1052841991,4.890785215,14.261620770504354
10.32105033,-2.604886532,4.09860611,-0.1076770201,4.85753026,14.260596128590175
10.32355647,-2.43708992,4.134498596,-0.1076770201,4.800529165,14.25946637680292
10.32606257,-2.312663078,4.141676903,-0.1339980662,4.745508778,14.258282295970428
10.32856866,-2.236092806,4.148855209,-0.1627119333,4.715886529,14.257100783394277
10.33107481,-2.195414782,4.093820572,-0.1627119333,4.648191919,14.255945883881495
10.3335809,-2.188236237,4.062713623,-0.1651047617,4.617497092,14.254961525752936
10.336087,-2.216950178,4.022035599,-0.1770688742,4.595975613,14.254173552810036
10.33859314,-2.264806747,3.967000723,-0.1674975902,4.571050184,14.253551821032726
10.34109923,-2.334198475,3.916751623,-0.1579262912,4.562276461,14.253054280968401
10.34360533,-2.410768747,3.87368083,-0.1627119333,4.565488397,14.252662683964495
10.34611147,-2.484946251,3.782753468,-0.1698904037,4.529132855,14.252415716684173
10.34861757,-2.540280342,3.739682674,-0.1962114573,4.52512427,14.252407964014404
10.35112366,-2.612065077,3.703790426,-0.2033899277,4.536773628,14.252681451982193
10.35362981,-2.664707184,3.660719633,-0.2273181528,4.533564398,14.25311117007043
10.3561359,-2.681456804,3.631706476,-0.2632105052,4.522032982,14.253515622791726
10.358642,-2.707777977,3.586242914,-0.3257229924,4.505473924,14.253656885810988
10.36114814,-2.731706142,3.547957659,-0.3903291821,4.494727897,14.253324420155533
10.36365423,-2.75084877,3.485744476,-0.4525425732,4.463449147,14.252368805793864
10.36616038,-2.743670225,3.421138287,-0.5386841893,4.418381393,14.250698959922605
10.36866647,-2.743670225,3.366103172,-0.6248258352,4.387343638,14.24827340725943
10.37117257,-2.734098911,3.323032379,-0.7396813035,4.366345094,14.245026223781483
10.37367866,-2.700599432,3.246462107,-0.8859425783,4.314817233,14.240848389318632
10.37618481,-2.65513587,3.172284603,-1.017547846,4.260110293,14.235693447867378
10.3786909,-2.609672308,3.105285645,-1.182652593,4.225145636,14.229463535093133
10.381197,-2.537887573,3.057130098,-1.333400369,4.191046924,14.222083921201714
10.38370314,-2.463410854,3.026023388,-1.455733418,4.164657293,14.213561602106468
10.38620923,-2.389233351,3.014059305,-1.558624864,4.14997602,14.203868943579506
10.38871533,-2.291127682,2.999702215,-1.711765528,4.144589323,14.192954847291555
10.39122147,-2.161915302,3.002095222,-1.927119493,4.171359855,14.180794802909283
10.39372757,-2.037488461,2.992523909,-2.171486616,4.221600727,14.167446076592302
10.39623366,-1.919941068,2.978166819,-2.396411896,4.277667738,14.15319236498767
10.39873981,-1.797907114,2.959024191,-2.614457846,4.338626969,14.138242427535378
10.4012459,-1.678265929,2.935096025,-2.832204819,4.410527105,14.122757272395132
10.40375205,-1.53230381,2.908775091,-3.102892876,4.520715839,14.106992298270566
10.40625814,-1.383649707,2.884846687,-3.423531055,4.68587151,14.091217563870643
10.40876423,-1.228116274,2.844168901,-3.77796793,4.885755622,14.075430625266446
10.41127038,-1.063011408,2.832204819,-4.148855209,5.134625297,14.059698203900737
10.41377647,-0.9290133715,2.793919563,-4.52482748,5.398436449,14.043926038558151
10.41628257,-0.7803592682,2.762812853,-4.893621445,5.673590247,14.027993906631323
10.41878871,-0.5913262963,2.769991398,-5.26690197,5.980198617,14.011891974930169
10.42129481,-0.4142574072,2.786741018,-5.609374523,6.277150408,13.995360708424796
10.4238009,-0.2679961324,2.825026274,-5.896812439,6.544080708,13.978341275879622
10.42630705,-0.1124626622,2.865704298,-6.140880108,6.777559847,13.96075662455224
10.42881314,0.04785645381,2.935096025,-6.329913139,6.977455071,13.942498430012531
10.43131923,0.2225325108,2.997309446,-6.476174355,7.139623163,13.923530460635307
10.43382538,0.4142574072,3.064308405,-6.586244106,7.276002105,13.903823420262539
10.43633147,0.5697908998,3.12921381,-6.736992359,7.450080992,13.883427770768646
10.43883757,0.7683951855,3.22492671,-6.861418724,7.620344504,13.862313823945124
10.44134371,0.9840483069,3.366103172,-6.7704916,7.624864467,13.840328562019057
10.44384981,1.18743825,3.555136204,-6.600601196,7.590582269,13.817422404712474
10.4463559,1.398006678,3.751646757,-6.387341022,7.538395147,13.793666596243932
10.44886205,1.582553029,3.96939373,-6.157629967,7.495129584,13.769079573272764
10.45136814,1.773978829,4.196712017,-5.884549141,7.442265195,13.743598767573749
10.45387423,1.955833435,4.450650215,-5.561518192,7.386748701,13.717347943176152
10.45638038,2.109273195,4.728217602,-5.1735816,7.319222751,13.690424523514379
10.45888647,2.233700037,5.015655518,-4.771587372,7.274219008,13.66280574131058
10.46139257,2.334198475,5.324329376,-4.309473515,7.236610242,13.634589268570902
10.46389871,2.360519648,5.647659779,-3.801896095,7.205728825,13.605838322498672
10.46640481,2.331805706,5.966204166,-3.277568817,7.195510222,13.576617483395982
10.4689109,2.255235434,6.296413898,-2.738884687,7.227198916,13.547072198677997
10.47141705,2.094916344,6.595815659,-2.279163599,7.286154363,13.51733832919909
10.47392314,1.876870275,6.832705021,-1.864906192,7.327098678,13.487575321499541
10.47642923,1.594517231,7.062715054,-1.474876046,7.389160201,13.457937998639306
10.47893538,1.225723386,7.249355316,-1.086939692,7.432159055,13.428569319811237
10.48144147,0.8306085467,7.397710323,-0.7277171612,7.479679194,13.399950632745794
10.48394762,0.375972271,7.529315472,-0.3687937856,7.547711937,13.372831624509368
10.48645371,-0.1148554832,7.618149281,-0.03110669367,7.619078545,13.34733020377468
10.48895981,-0.6559324861,7.663612843,0.2898306549,7.697091076,13.323423880482961
10.49146595,-1.225723386,7.680362701,0.5841478109,7.799461373,13.30106434105172
10.49397205,-1.773978829,7.663612843,0.8955138922,7.917064343,13.28018864516119
10.49647814,-2.355733871,7.639684677,1.237687469,8.08987851,13.260812229054006
10.49898429,-2.956631422,7.577471256,1.616052628,8.2928503,13.242889178536567
10.50149038,-3.567100286,7.519744396,2.00638175,8.561327465,13.226376657898964
10.50399647,-4.182354927,7.491030216,2.413161755,8.912405741,13.211304452914904
10.50650262,-4.802694321,7.445566654,2.853740215,9.308392383,13.197683438798796
10.50900871,-5.405984402,7.402495861,3.291925669,9.739527038,13.18555115355481
10.51151481,-6.018846035,7.364210606,3.751646757,10.22413609,13.17491475501849
10.51402095,-6.638886452,7.366603374,4.206283092,10.77193001,13.165780320334115
10.51652705,-7.297211647,7.395317554,4.677968502,11.39400759,13.158233591819963
10.51903314,-7.981858253,7.457530975,5.168796062,12.08475412,13.152309862371872
10.52153929,-8.652147293,7.567600727,5.666802406,12.81564993,13.14805395768439
10.52404538,-9.322735786,7.704290867,6.195915222,13.58892438,13.145477129977209
10.52655147,-10.01216793,7.852645874,6.763313293,14.41006456,13.14462441153013
10.52905762,-10.73031425,7.991429329,7.345067978,15.26278514,13.145452855917599
10.53156371,-11.46760273,8.058428764,7.890930653,16.0844948,13.147914007983811
10.53406981,-12.2099762,8.070392609,8.415258408,16.88287089,13.151949126888049
10.53657595,-12.98076344,8.001000404,8.987442017,17.70000963,13.157558564320572
10.53908205,-13.79492188,7.890930653,9.593125343,18.56326237,13.164749401857621
10.54158814,-14.60638809,7.780860901,10.19880867,19.43975483,13.17350260784825
10.54409429,-15.39392567,7.642077446,10.72792149,20.25987647,13.183680417130322
10.54660038,-16.16262054,7.522137165,11.08475113,20.99248813,13.195168677559325
10.54910653,-16.88794327,7.412067413,11.23310566,21.59453713,13.207769468740944
10.55161262,-17.53669739,7.313961506,11.22353458,22.06802023,13.221324067174141
10.55411871,-18.21895218,7.244569778,11.09671497,22.52889462,13.235768180519484
10.55662481,-18.86082649,7.189534664,10.85234833,22.91710385,13.250976299991924
10.55913095,-19.48086739,7.144071102,10.5723877,23.28770765,13.266874434877941
10.56163705,-20.08894157,7.103393078,10.31844902,23.6747578,13.283447851762634
10.56414314,-20.70419693,7.041179657,10.09830952,24.08771132,13.300680475449347
10.56664929,-21.29791641,6.971488953,9.890133858,24.49525769,13.318539324209539
10.56915538,-21.88924217,6.878168583,9.731908798,24.92304505,13.337032110684653
10.57166153,-22.45903397,6.741777897,9.669695854,25.36459725,13.35617170343283
10.57416762,-22.9977169,6.586244106,9.609874725,25.78028872,13.37591014067696
10.57667371,-23.51247406,6.380162239,9.475876808,26.14067994,13.396167712036991
10.57917981,-23.97458649,6.109773636,9.270093918,26.42053694,13.41688468586241
10.58168595,-24.36940384,5.767300606,8.913264275,26.58149506,13.437927530209905
10.58419205,-24.76212502,5.370092392,8.494221687,26.72363242,13.459263570537653
10.58669819,-25.07827759,4.941477776,8.048856735,26.79780409,13.480808813360968
10.58920429,-25.39891434,4.448257446,7.687541008,26.9070647,13.502614599314203
10.59171038,-25.73181725,3.902394533,7.421638489,27.0635515,13.524751739585296
10.59421653,-26.02134895,3.361317635,7.261319637,27.22380981,13.547197041931215
10.59672262,-26.27050018,2.834597588,7.27567625,27.40637861,13.569997396876635
10.59922871,-26.52892494,2.317448616,7.498209,27.66545797,13.593214184027834
10.60173486,-26.74218559,1.802692771,7.922037601,27.94911217,13.616843944470109
10.60424095,-26.92403984,1.323829174,8.496614456,28.2639152,13.640948743623817
10.60674705,-27.06760979,0.8500502706,9.085547447,28.56440543,13.66546777467627
10.60925319,-26.95275497,0.4214358926,9.380164146,28.54148014,13.69001078496035
10.61175929,-26.54328156,0.02153540403,9.485447884,28.18723082,13.714222352021661
10.61426538,-25.86820793,-0.2850449979,9.602696419,27.59451414,13.737808136636113
10.61677153,-24.95355034,-0.4525425732,9.707980156,26.77927086,13.760477854834319
10.61927762,-24.01526451,-0.5602195859,9.784550667,25.93808411,13.78209044463947
10.62178371,-23.11496544,-0.6726822853,9.779765129,25.10772659,13.802549975687498
10.62428986,-22.27717972,-0.8138588071,9.619445801,24.27897938,13.8217906862171
10.62679595,-21.50609207,-0.9649057388,9.396913528,23.48925335,13.83978308815318
10.62930205,-20.76162529,-1.120439172,9.064012527,22.68163997,13.85648621114795
10.63180819,-20.05544281,-1.290329576,8.72423172,21.90885565,13.871888351928963
10.63431429,-19.38754654,-1.424626827,8.41047287,21.18118449,13.886024750531831
10.63682038,-18.75763512,-1.529910922,8.106285095,20.49149484,13.898987517600466
10.63932653,-18.17348862,-1.608874083,7.802396297,19.84292197,13.910815551347381
10.64183262,-17.60848236,-1.651944876,7.567600727,19.23684365,13.9216368056162
10.64433871,-17.08654785,-1.67587316,7.337889671,18.67092106,13.931562746054945
10.64684486,-16.55025673,-1.67587316,7.160820961,18.11068484,13.940641723549792
10.64935095,-16.04776382,-1.632802367,7.036394119,17.59851157,13.948954064617904
10.6518571,-15.53061581,-1.563410521,6.959524632,17.09032659,13.956507189078483
10.65436319,-14.98953819,-1.505982757,6.966702938,16.59786701,13.963374039429324
10.65686929,-14.4508543,-1.41984117,6.9619174,16.10314978,13.969584900171055
10.65937543,-13.86431313,-1.36211431,6.94756031,15.56737383,13.975113694346886
10.66188153,-13.28255844,-1.28315115,6.808776855,14.98106398,13.980015663202222
10.66438762,-12.68405342,-1.17068851,6.641279221,14.3653163,13.984315681271566
10.66689371,-12.09033489,-1.063011408,6.509674072,13.77251058,13.988065993628325
10.66939986,-11.47238827,-0.9888339639,6.389733791,13.16898565,13.991292247888316
10.67190595,-10.87866879,-0.9098708034,6.229414463,12.56896591,13.994087612680888
10.6744121,-10.30169964,-0.8330013752,6.064310074,11.98310325,13.996498396325531
10.67691819,-9.722337723,-0.7516453862,5.896812439,11.39566666,13.998509124313186
10.67942429,-9.142974854,-0.6511468887,5.642873764,10.76382858,14.000020784139567
10.68193043,-8.549256325,-0.5721837282,5.298008442,10.07402955,14.001053133730597
10.68443653,-7.936394691,-0.4621138871,4.907978535,9.342813454,14.001754225966375
10.68694262,-7.349853992,-0.3687937856,4.565505505,8.660265763,14.002208143408193
10.68944877,-6.763313293,-0.2826521695,4.261617184,7.998979933,14.002454722561442
10.69195486,-6.203093529,-0.1698904037,3.92392993,7.341965552,14.002479333429655
10.69446095,-5.640480995,-0.05742774159,3.607778311,6.695848575,14.002237312111772
10.6969671,-5.077868938,0.03110669367,3.291925669,6.051652269,14.001727685018668
10.69947319,-4.496113777,0.1028913707,2.956631422,5.382127377,14.000950179383441
10.70197929,-3.947858334,0.1866401732,2.688635349,4.780081591,13.99997347456369
10.70448543,-3.411566973,0.304187566,2.482553482,4.230176246,13.998776726291618
10.70699153,-2.870489836,0.3687937856,2.267199516,3.676399652,13.997270767550926
10.70949762,-2.365305185,0.3975076675,2.073380709,3.17042403,13.995403831205365
10.71200377,-1.876870275,0.3903291821,1.94865489,2.733542533,13.993183106608846
10.71450986,-1.417448282,0.3376871049,1.833799481,2.34222389,13.990580440091149
10.71701595,-0.950548768,0.2584248483,1.659123421,1.929512085,13.987474755695224
10.7195221,-0.5171487927,0.1555334777,1.415055513,1.51460082,13.983761372051006
10.72202819,-0.1028913707,0.009571290575,1.110867858,1.115663767,13.979349003875221
10.72453429,0.2560320199,-0.1938186288,0.7636095285,0.8283825011,13.974279685309451
10.72704043,0.6152545214,-0.4310071766,0.423828721,0.8625173025,13.968815707603865
10.72954653,0.9290133715,-0.6702894568,0.06460621208,1.147400437,13.963129560968156
10.73205262,1.213759303,-0.9481559992,-0.2874378264,1.566790333,13.95731503353305
10.73455877,1.213759303,-0.9481559992,-0.2874378264,1.566790333,13.950969085969106
10.73706486,1.594517231,-1.599302888,-0.8931210637,2.428563395,13.944946452908829
10.73957095,1.735693693,-1.953440547,-1.168295622,2.862425061,13.938805752799938
10.7420771,1.83619225,-2.315055847,-1.446162224,3.289752382,13.932540653430074
10.74458319,1.912762642,-2.68624258,-1.671087503,3.69690324,13.926130041577967
10.74708934,1.943869352,-3.085843801,-1.809871197,4.071448609,13.9195251706578
10.74959543,1.946262121,-3.502494097,-1.929512382,4.447293466,13.912714774735191
10.75210153,1.94865489,-3.900001764,-1.953440547,4.777363249,13.905644688335965
10.75460767,1.910369754,-4.275974274,-1.939083695,5.068877012,13.898230839939474
10.75711377,1.876870275,-4.656432629,-1.888834357,5.36401921,13.890430837200672
10.75961986,1.843370795,-4.991727352,-1.764407635,5.606112035,13.882141315421931
10.762126,1.790728688,-5.334199905,-1.534696579,5.832297271,13.873256594527444
10.7646321,1.728515267,-5.63090992,-1.199402332,6.011112834,13.863680787118073
10.76713819,1.64476645,-5.911169052,-0.8114659786,6.189156103,13.853403900770463
10.76964434,1.561017632,-6.171987057,-0.4190430641,6.380109511,13.84243086434906
10.77215043,1.477268934,-6.401698112,0.02871387079,6.569998989,13.83076293368965
10.77465653,1.374078393,-6.617351055,0.6032904387,6.785380297,13.818381460137585
10.77716267,1.278365493,-6.777669907,1.189831018,6.999051761,13.805265095995317
10.77966877,1.182652593,-6.906882763,1.773978829,7.228464397,13.791419098088737
10.78217486,1.067797065,-7.036394119,2.329412937,7.488470966,13.776901568158534
10.78468101,0.950548768,-7.127321243,2.930310488,7.764597261,13.761798353483652
10.7871871,0.8234301209,-7.208677292,3.502494097,8.056707166,13.746226646691351
10.78969319,0.7181459069,-7.282855034,4.01964283,8.349445459,13.730252013453157
10.79219934,0.6391827464,-7.301997185,4.433900356,8.566632351,13.713929440958417
10.79470543,0.5243272781,-7.345067978,4.728217602,8.751056187,13.697434742582326
10.79721153,0.4453641176,-7.376174927,4.891228676,8.861739316,13.680873180858692
10.79971767,0.4142574072,-7.397710323,4.886443138,8.875531182,13.664300195336585
10.80222377,0.3903291821,-7.414460182,4.744967461,8.811429672,13.647662574030274
10.80472986,0.3687937856,-7.435995579,4.467400074,8.6826092,13.630912576960727
10.807236,0.4118646085,-7.462316513,4.043570995,8.497427057,13.613977845403959
10.8097421,0.4764707983,-7.230212688,3.631706476,8.105078153,13.596574797474197
10.81224825,0.5530411601,-6.832705021,3.375674486,7.641131504,13.578552589177539
10.81475434,0.6296114326,-6.358626842,3.186641455,7.140254172,13.559817685271106
10.81726043,0.7348956466,-5.827121258,2.963809967,6.57872201,13.540260896719296
10.81976658,0.8572286963,-5.274080276,2.679064035,5.977302728,13.519840228424863
10.82227267,0.97926265,-4.744967461,2.377269268,5.396765764,13.498549943104685
10.82477877,1.077368379,-4.235296249,2.08534503,4.842222717,13.476439348165794
10.82728491,1.173081279,-3.780360699,1.802692771,4.349361784,13.453558645040387
10.829791,1.256830096,-3.349353552,1.556231976,3.901236864,13.42994624117515
10.8322971,1.335793257,-2.973381281,1.369292736,3.53557668,13.40571884725748
10.83480324,1.4054842,-2.595315218,1.216152072,3.192189339,13.381000984149715
10.83730934,1.446162224,-2.216950178,1.12283206,2.875240008,13.356181732205329
