Time (s),Acceleration x (m/s^2),Acceleration y (m/s^2),Acceleration z (m/s^2),Absolute acceleration (m/s^2),magnitude
9.291373605,-4.208974838,11.06321526,0.9984052777,11.87884734,
9.293879646,-4.271188259,11.36231804,1.024726272,12.18176442,
9.29638574,-4.323830605,11.69521999,1.015154958,12.51016472,
9.298891782,-4.388436794,12.03021526,0.9744769931,12.8426657,
9.301397928,-4.462614059,12.32961655,0.9625129104,13.14765377,
9.303903969,-4.548755646,12.62901878,0.9337990284,13.45567813,
9.306410011,-4.639683247,12.89222908,0.8883354068,13.73045415,
9.308916105,-4.752145767,13.11954784,0.8401798606,13.97896016,
9.311422146,-4.862514496,13.28255844,0.8282157183,14.1688513,
9.31392824,-4.934299469,13.39502144,0.8138588071,14.29812144,
9.316434282,-5.039583683,13.47398472,0.8234301209,14.40915352,
9.318940428,-5.132903576,13.50748348,0.8620143533,14.4755614,
9.321446469,-5.235795021,13.51705551,0.9337990284,14.52571237,
9.323952511,-5.321936607,13.47398472,1.003190875,14.5216275,
9.326458605,-5.391627789,13.40698528,1.103689432,14.49258552,
9.328964646,-5.475376606,13.30887985,1.220937729,14.44287786,
9.33147074,-5.528018475,13.18415356,1.371685624,14.36183883,
9.333976782,-5.561518192,13.02861977,1.572981834,14.25305895,
9.336482876,-5.56630373,12.86830139,1.797907114,14.13539486,
9.338988917,-5.532804012,12.72712421,2.068595171,14.03106186,
9.341495063,-5.475376606,12.54018497,2.310270309,13.87707956,
9.344001105,-5.396413326,12.41575813,2.48733902,13.76441725,
9.346507146,-5.288437366,12.26501083,2.595315218,13.60638532,
9.34901324,-5.171188831,12.0975132,2.626421928,13.41600207,
9.351519282,-5.051547527,11.94646645,2.616850615,13.23193486,
9.354025376,-4.948656559,11.80050373,2.578565598,13.05335553,
9.356531417,-4.855336189,11.66411304,2.614457846,12.90198483,
9.359037563,-4.77637291,11.54207897,2.65513587,12.77039826,
9.361543605,-4.697110653,11.41735363,2.659921408,12.62909317,
9.364049646,-4.577469826,11.31924725,2.695813894,12.50383944,
9.36655574,-4.467400074,11.20917797,2.767598391,12.37994083,
9.369061782,-4.36211586,11.07039356,2.84656167,12.23456504,
9.371567876,-4.299902439,10.94596672,2.966202736,12.12854926,
9.374073917,-4.220939159,10.8116703,3.105285645,12.01463029,
9.376580063,-4.141676903,10.66570759,3.215355396,11.88483556,
9.379086105,-4.067499161,10.50538826,3.301496983,11.73914879,
9.381592146,-3.990929127,10.38335514,3.378067255,11.6255287,
9.38409824,-3.907180309,10.24905777,3.447459221,11.49757445,
9.386604282,-3.821038723,10.11745262,3.509672642,11.3701797,
9.389110376,-3.730111361,10.01216793,3.61017108,11.27787979,
9.391616417,-3.631706476,9.933204651,3.696611881,11.20369519,
9.394122563,-3.543172121,9.870991707,3.749253988,11.13765915,
9.396628605,-3.433102369,9.810872078,3.816252947,11.07263245,
9.399134646,-3.315854073,9.796515465,3.885644913,11.04829579,
9.40164074,-3.220141172,9.798908234,3.911965847,11.03138199,
9.404146782,-3.117249727,9.808479309,3.907180309,11.00861345,
9.406652876,-3.004487991,9.825528145,3.883252144,10.98397008,
9.409158917,-2.923131943,9.849455833,3.84257412,10.96913198,
9.411665011,-2.829811811,9.88534832,3.80907464,10.96526315,
9.414171053,-2.748456001,9.93559742,3.725325823,10.96121156,
9.416677199,-2.667099953,9.961918831,3.629313707,10.9327566,
9.41918324,-2.602493763,9.985847473,3.509672642,10.89990484,
9.421689282,-2.542673111,10.0145607,3.3852458,10.87274122,
9.424195376,-2.475374937,10.04566765,3.258426189,10.84713146,
9.426701417,-2.401197433,10.05284595,3.126821041,10.79826239,
9.429207511,-2.34137702,10.04327488,2.970988512,10.73201702,
9.431713553,-2.283949137,10.04327488,2.827419043,10.68073464,
9.434219646,-2.214557409,10.06241703,2.710170746,10.65370952,
9.436725688,-2.126022816,10.04566765,2.633600473,10.60053126,
9.439231834,-2.001596212,10.01695347,2.499303341,10.51628553,
9.441737876,-1.876870275,9.995418549,2.315055847,10.43026929,
9.444243917,-1.769193292,9.9643116,2.142772675,10.34451668,
9.446750011,-1.666301847,10.00020409,2.025524378,10.33844247,
9.449256053,-1.565803289,10.0648098,1.97527504,10.37563722,
9.451762146,-1.520339727,10.11027431,1.963011861,10.41069139,
9.454268188,-1.443769336,10.14855862,1.97527504,10.43932102,
9.456774334,-1.398006678,10.17488003,1.941476464,10.45236514,
9.459280376,-1.340578914,10.18923664,1.862513304,10.44445551,
9.461786417,-1.271187067,10.22512913,1.752443433,10.4518056,
9.464292511,-1.242473125,10.2969141,1.697408557,10.50958492,
9.466798553,-1.228116274,10.32562828,1.70937264,10.53797057,
9.469304646,-1.194616675,10.35912704,1.754836321,10.57440649,
9.471810688,-1.175474167,10.40489006,1.769193292,10.61948782,
9.474316834,-1.149153113,10.42642593,1.766800404,10.63731612,
9.476822876,-1.130010486,10.44796085,1.771586061,10.65717255,
9.479328917,-1.120439172,10.44078255,1.821835399,10.65759862,
9.481835011,-1.103689432,10.41206837,1.896012783,10.64068431,
9.484341053,-1.091725349,10.40489006,1.992024899,10.64996547,
9.486847146,-1.077368379,10.3471632,2.078166485,10.60864199,
9.489353188,-1.05822587,10.27298546,2.176272154,10.55415713,
9.491859334,-1.043868899,10.1964159,2.267199516,10.49746413,
9.494365376,-1.034297585,10.09830952,2.365305185,10.42306554,
9.496871417,-1.003190875,9.981060982,2.494517565,10.33685581,
9.499377511,-0.97926265,9.861420631,2.619243383,10.25021991,
9.501883553,-0.9625129104,9.72712326,2.746062994,10.15303994,
9.504389646,-0.955334425,9.542876244,2.872882605,10.01162351,
9.506895688,-0.9361918569,9.363413811,3.009273529,9.879559735,
9.509401782,-0.9074779749,9.171689034,3.157927752,9.74247934,
9.511907824,-0.8979067206,8.975478172,3.301496983,9.605484227,
9.514413969,-0.8883354068,8.769695282,3.425923824,9.456936564,
9.516920011,-0.9194421172,8.542078018,3.533600807,9.28971503,
9.519426053,-0.9290133715,8.336295128,3.629313707,9.139409187,
9.521932146,-0.955334425,8.134998322,3.684647799,8.981508278,
9.524438188,-0.9744769931,7.934001446,3.71336174,8.814025174,
9.526944282,-1.005583763,7.728219032,3.732504129,8.641073729,
9.529450324,-1.05822587,7.543672562,3.715754509,8.475474576,
9.531956469,-1.094118118,7.373782158,3.66789794,8.308022211,
9.534462511,-1.1395818,7.194320202,3.61017108,8.129589477,
9.536968553,-1.168295622,7.024429798,3.531208038,7.948393477,
9.539474646,-1.192223907,6.882954121,3.430709362,7.78243034,
9.541980688,-1.211366415,6.736992359,3.339782238,7.616339018,
9.544486834,-1.230509043,6.595815659,3.220141172,7.442327988,
9.546992876,-1.26640141,6.480959892,3.105285645,7.297219511,
9.549498917,-1.307079315,6.380162239,2.978166819,7.161313017,
9.552005011,-1.352542996,6.298806667,2.851347208,7.045176995,
9.554511053,-1.369292736,6.246164322,2.717349291,6.947914687,
9.557017146,-1.412662625,6.210271835,2.592922449,6.876506292,
9.559523188,-1.45334065,6.15045166,2.482553482,6.789943038,
9.562029282,-1.498804331,6.145665646,2.355733871,6.750192792,
9.564535324,-1.544267893,6.138487339,2.221735716,6.708345528,
9.567041469,-1.606481314,6.131309032,2.094916344,6.675508007,
9.569547511,-1.654337764,6.114559174,1.977667928,6.635950403,
9.572053553,-1.687837243,6.102594852,1.848156333,6.595918459,
9.574559646,-1.754836321,6.102594852,1.72372961,6.579692866,
9.577065688,-1.821835399,6.093023777,1.613659739,6.561091428,
9.579571782,-1.8840487,6.095416546,1.494018674,6.552544099,
9.582077824,-1.946262121,6.083452702,1.417448282,6.542590668,
9.584583969,-1.984846354,6.064310074,1.328614831,6.517721158,
9.587090011,-2.032702923,6.061916828,1.26640141,6.51785926,
9.589596053,-2.094916344,6.052345753,1.230509043,6.5217878,
9.592102146,-2.152343988,6.037988663,1.194616675,6.520506172,
9.594608188,-2.202593327,6.016453266,1.175474167,6.513897971,
9.597114282,-2.238485575,6.004489422,1.180259824,6.515959188,
9.599620324,-2.279163599,5.975775242,1.189831018,6.505395784,
9.602126417,-2.32701993,6.004489422,1.211366415,6.552581443,
9.604632459,-2.367697954,6.00927496,1.242473125,6.577318497,
9.607138605,-2.410768747,6.02363205,1.278365493,6.612878901,
9.609644646,-2.46819663,6.040381432,1.304686546,6.654352668,
9.612150688,-2.492124796,6.054738522,1.352542996,6.685799662,
9.614656782,-2.557030201,6.076273918,1.390828133,6.737500358,
9.617162824,-2.638386011,6.081059456,1.441376567,6.783651764,
9.619668969,-2.683849812,6.100202084,1.48444736,6.827818044,
9.622175011,-2.743670225,6.116951942,1.508375525,6.87168277,
9.624681053,-2.796312332,6.13609457,1.556231976,6.92046799,
9.627187146,-2.872882605,6.162415504,1.613659739,6.988041003,
9.629693188,-2.927917719,6.18634367,1.66151619,7.04302394,
9.632199282,-2.985345364,6.217450619,1.699801445,7.103400882,
9.634705324,-3.047558784,6.253343105,1.754836321,7.174354678,
9.637211469,-3.095714331,6.270092487,1.802692771,7.221302392,
9.639717511,-3.133999348,6.277271271,1.840977907,7.253639512,
9.642223553,-3.208176851,6.284449577,1.864906192,7.298258717,
9.644729646,-3.253640652,6.294020653,1.90079844,7.335796356,
9.647235688,-3.306282759,6.31316328,1.943869352,7.386891386,
9.649741782,-3.363710403,6.346662998,1.97527504,7.449589947,
9.652247824,-3.406781197,6.363412857,2.018345833,7.494858318,
9.654753917,-3.468994617,6.401698112,2.07098794,7.569983714,
9.657259959,-3.500101328,6.449554443,2.114058733,7.636537576,
9.659766105,-3.528815269,6.533602238,2.176272154,7.738000769,
9.662272146,-3.571886063,6.581458569,2.21216464,7.808177722,
9.664778188,-3.612564087,6.674778938,2.250449657,7.916300703,
9.667284282,-3.653541088,6.7704916,2.293520451,8.027960827,
9.669790324,-3.689433336,6.897311211,2.291127682,8.150710787,
9.672296417,-3.732504129,7.014858723,2.271985054,8.264487042,
9.674802459,-3.770789385,7.108178616,2.240878344,8.352639796,
9.677308605,-3.821038723,7.203891754,2.204986095,8.447387585,
9.679814646,-3.852145433,7.316354275,2.161915302,8.546457868,
9.682320688,-3.89043045,7.41924572,2.10209465,8.63709778,
9.684826782,-3.933501244,7.517351627,2.056631088,8.729990776,
9.687332824,-3.964607954,7.615756035,2.023131609,8.821049695,
9.689838917,-4.002892971,7.721040249,1.980060697,8.919543431,
9.692344959,-4.026821613,7.838288784,1.968096614,9.029256207,
9.694851105,-4.04835701,7.962715626,1.968096614,9.146990702,
9.697357146,-4.065106392,8.084749222,1.958226204,9.258666741,
9.699863188,-4.074677944,8.199904442,1.953440547,9.362551104,
9.702369282,-4.081856251,8.309973717,1.953440547,9.462195496,
9.704875324,-4.081856251,8.422436714,1.955833435,9.561604211,
9.707381469,-4.09860611,8.515756607,1.963011861,9.652465913,
9.709887511,-4.117748737,8.6090765,1.943869352,9.739131425,
9.712393553,-4.105784416,8.673683167,1.929512382,9.788424969,
9.714899646,-4.1129632,8.733802795,1.951047778,9.848977865,
9.717405688,-4.100998878,8.791230202,1.972882271,9.899302234,
9.719911782,-4.093820572,8.84387207,1.994417667,9.947418856,
9.722417824,-4.096213341,8.882157326,2.042274237,9.992125227,
9.724923917,-4.089034557,8.906085968,2.097309113,10.02183997,
9.727429959,-4.086641788,8.90130043,2.18105793,10.03448076,
9.729936105,-4.089034557,8.930013657,2.264806747,10.07941948,
9.732442146,-4.086641788,8.930013657,2.34137702,10.09593143,
9.734948188,-4.062713623,8.937192917,2.434697151,10.11468286,
9.737454282,-4.067499161,8.965906143,2.537887573,10.16724622,
9.739960324,-4.055535316,8.992227554,2.650350094,10.21429776,
9.742466469,-4.026821613,9.020941734,2.765205622,10.2586083,
9.744972511,-4.024428368,9.075976372,2.892025232,10.3408501,
9.747478553,-4.017250061,9.12861824,2.994916677,10.41342859,
9.749984646,-3.998107433,9.195617676,3.085843801,10.49126682,
9.752490688,-4.007678986,9.274879456,3.191427231,10.595758,
9.754996782,-4.017250061,9.353842735,3.294318676,10.69977605,
9.757502824,-4.041178226,9.454340935,3.411566973,10.83302696,
9.760008969,-4.045963764,9.569196701,3.519243956,10.96924912,
9.762515011,-4.053142548,9.710372925,3.605385542,11.12286437,
9.765021053,-4.08424902,9.830313683,3.69900465,11.2693741,
9.767527146,-4.117748737,9.969097137,3.758825302,11.42223796,
9.770033188,-4.158426762,10.13180923,3.79471755,11.59077015,
9.772539282,-4.199104786,10.30169964,3.852145433,11.77270236,
9.775045324,-4.230510235,10.47667503,3.878466368,11.94572886,
9.777551417,-4.249652863,10.63938713,3.900001764,12.10231886,
9.780057459,-4.278367043,10.81406307,3.89043045,12.26310865,
9.782563605,-4.29750967,10.9746809,3.854538202,12.40039011,
9.785069646,-4.29750967,11.11107159,3.780360699,12.49862505,
9.787575688,-4.321437836,11.25464153,3.715754509,12.61541171,
9.790081782,-4.302295208,11.40299606,3.622135162,12.71447704,
9.792587824,-4.266402721,11.53729343,3.552743435,12.80364471,
9.795093917,-4.256831646,11.65454197,3.454637766,12.87957632,
9.797599959,-4.223331928,11.78614712,3.349353552,12.96024559,
9.800106105,-4.187140465,11.91296673,3.253640652,13.03982742,
9.802612146,-4.182354927,12.02064323,3.153141975,13.112218,
9.805118188,-4.153641224,12.14297676,3.081058264,13.19839157,
9.807624282,-4.136891365,12.28654575,3.030808926,13.31386043,
9.810130324,-4.103391647,12.44207954,2.980559587,13.43602999,
9.812636417,-4.086641788,12.62393379,2.923131943,13.58709115,
9.815142459,-4.069892406,12.84437275,2.884846687,13.77912464,
9.817648605,-4.069892406,13.07647705,2.884846687,13.99573566,
9.820154646,-4.072285175,13.36870003,2.920739174,14.27712731,
9.822660688,-4.067499161,13.67498112,3.009273529,14.58099397,
9.825166782,-4.077070713,14.01745415,3.136392355,14.93145952,
9.827672824,-4.110570431,14.36471272,3.246462107,15.28990768,
9.830178969,-4.153641224,14.69252968,3.351746321,15.63193421,
9.832685011,-4.187140465,14.99193096,3.468994617,15.94754097,
9.835191053,-4.240081787,15.29342651,3.564707518,16.26574092,
9.837697146,-4.285545349,15.5617218,3.605385542,16.53879951,
9.840203188,-4.338187218,15.79143333,3.598206997,16.76712046,
9.842709282,-4.371686935,15.97089481,3.574278831,16.9397933,
9.845215324,-4.417150497,16.1195488,3.497708559,17.07586124,
9.847721417,-4.436293125,16.220047,3.409173965,17.15788706,
9.850227459,-4.436293125,16.28465271,3.303889751,17.19843883,
9.852733605,-4.414757729,16.31575966,3.189034462,17.20069882,
9.855239646,-4.376472473,16.27986717,3.064308405,17.13410553,
9.857745688,-4.319045067,16.19851112,2.939881802,17.02024729,
9.860251782,-4.213760853,16.08365631,2.81545496,16.86317193,
9.862757824,-4.074677944,15.88236046,2.695813894,16.61685249,
9.865263969,-3.952643871,15.65504169,2.580958366,16.35130179,
9.867770011,-3.813860178,15.37717533,2.484946251,16.03677051,
9.870276053,-3.660719633,15.07567978,2.374876499,15.69449035,
9.872782146,-3.49531579,14.79302788,2.293520451,15.37241498,
9.875288188,-3.349353552,14.49153233,2.236092806,15.04070442,
9.877794282,-3.196212769,14.2184515,2.178664923,14.73522039,
9.880300324,-3.049951553,13.95284748,2.13559413,14.44108443,
9.882806469,-2.903989315,13.7108736,2.11645174,14.17394006,
9.885312511,-2.748456001,13.48116302,2.111665964,13.91958692,
9.887818553,-2.607279301,13.31366539,2.126022816,13.7321362,
9.890324646,-2.470589399,13.16979694,2.140379906,13.56939902,
9.892830688,-2.338984251,13.04058456,2.159522533,13.42353272,
9.895336782,-2.238485575,12.92812157,2.161915302,13.29740662,
9.897842824,-2.109273195,12.83480167,2.173879385,13.18737726,
9.900348969,-2.018345833,12.73669624,2.171486616,13.07717497,
9.902855011,-1.912762642,12.65534019,2.185843468,12.98438324,
9.905361053,-1.838585138,12.5928278,2.183450699,12.91228733,
9.907867146,-1.7883358,12.52104282,2.204986095,12.83887152,
9.910373188,-1.718943954,12.44447231,2.233700037,12.75966596,
9.912879282,-1.671087503,12.3798666,2.315055847,12.70484609,
9.915385324,-1.632802367,12.3176527,2.420340061,12.65893588,
9.917891469,-1.630409479,12.24586773,2.45383954,12.59527054,
9.920397511,-1.611266971,12.15733337,2.465803623,12.50908164,
9.922903553,-1.608874083,12.09033489,2.475374937,12.44556767,
9.925409646,-1.599302888,12.05892849,2.494517565,12.41765453,
9.927915688,-1.565803289,12.06640625,2.417947292,12.40549752,
9.930421834,-1.546660781,12.04935741,2.37248373,12.37771597,
9.932927876,-1.582553029,11.93928814,2.540280342,12.30870016,
9.935433917,-1.668694735,11.81246853,2.760420084,12.244953,
9.937940011,-1.800299883,11.70718384,2.858525753,12.18484315,
9.940446053,-1.924726725,11.5899353,2.767598391,12.07024333,
9.942952146,-2.035095692,11.47478104,2.533101797,11.92597246,
9.945458188,-2.121237278,11.40538883,2.243271112,11.81587099,
9.947964334,-2.16670084,11.36471081,2.003988981,11.74168711,
9.950470376,-2.188236237,11.38385391,1.8840487,11.74436662,
9.952976417,-2.183450699,11.4077816,1.876870275,11.76552506,
9.955482511,-2.173879385,11.41735363,1.910369754,11.77842214,
9.957988553,-2.169093609,11.42692471,1.982453585,11.79871593,
9.960494646,-2.185843468,11.39103222,2.035095692,11.77604098,
9.963000688,-2.23130703,11.32881927,2.061416626,11.72903729,
9.965506834,-2.274377823,11.25224876,2.051845312,11.66173083,
9.968012876,-2.338984251,11.1876421,2.003988981,11.60388533,
9.970518917,-2.40598321,11.08235836,1.934298038,11.50430054,
9.973025011,-2.496910334,10.99143124,1.843370795,11.42121437,
9.975531053,-2.561815739,10.91934681,1.75722909,11.35265998,
9.978037146,-2.621636391,10.8116703,1.690230131,11.25264724,
9.980543188,-2.693420887,10.72313595,1.637588024,11.1768446,
9.983049334,-2.760420084,10.6226368,1.582553029,11.08894971,
9.985555376,-2.834597588,10.54606628,1.553839207,11.03036146,
9.988061417,-2.887239695,10.47667503,1.522732496,10.97340362,
9.990567511,-2.939881802,10.37109184,1.505982757,10.88441248,
9.993073553,-2.980559587,10.26819992,1.479661703,10.79393644,
9.995579646,-3.009273529,10.16052341,1.450947881,10.69566328,
9.998085688,-3.061915636,10.0337038,1.398006678,10.58323968,
10.00059183,-3.085843801,9.906884193,1.342971683,10.46290396,
10.00309788,-3.090928555,9.77737236,1.273579836,10.33309514,
10.00560392,-3.119642496,9.624231339,1.18743825,10.18665832,
10.00811001,-3.102892876,9.490233421,1.103689432,10.04542707,
10.01061605,-3.095714331,9.346664429,0.9936196208,9.89600238,
10.01312215,-3.059522867,9.200403214,0.9050851464,9.737929892,
10.01562819,-3.026023388,9.066405296,0.8572286963,9.596424521,
10.01813433,-2.973381281,8.939585686,0.8162516356,9.456397581,
10.02064038,-2.884846687,8.810373306,0.794716239,9.304654325,
10.02314642,-2.810669184,8.668897629,0.7803592682,9.146507965,
10.02565251,-2.769991398,8.534899712,0.7923234105,9.008059825,
10.02815855,-2.712563515,8.41047287,0.7875377536,8.872106313,
10.0306647,-2.693420887,8.293224335,0.789930582,8.755345582,
10.03317074,-2.669492722,8.166404724,0.7396813035,8.623426578,
10.03567678,-2.65513587,8.024929047,0.7061817646,8.482212293,
10.03818288,-2.628814697,7.876574039,0.7229315639,8.335089403,
10.04068892,-2.609672308,7.752147198,0.7540382147,8.214301514,
10.04319501,-2.59052968,7.618149281,0.8066803217,8.086889119,
10.04570105,-2.571387053,7.491030216,0.8476574421,7.965305281,
10.0482072,-2.542673111,7.383353233,0.8691928387,7.857136101,
10.05071324,-2.506481647,7.278069019,0.8859425783,7.748395521,
10.05321928,-2.456232548,7.160820961,0.8715856671,7.620373793,
10.05572538,-2.410768747,7.091429234,0.8787640929,7.541379241,
10.05823142,-2.360519648,7.024429798,0.8931210637,7.464069415,
10.06073756,-2.312663078,6.966702938,0.9242277741,7.398483447,
10.0632436,-2.291127682,6.911668301,0.9457631707,7.342676128,
10.06574965,-2.255235434,6.868597507,0.9649057388,7.293473909,
10.06825574,-2.240878344,6.823133945,0.9625129104,7.245903925,
10.07076178,-2.248056889,6.78484869,0.950548768,7.210511388,
10.07326788,-2.281556368,6.760920525,0.9361918569,7.196665964,
10.07577392,-2.293520451,6.732206345,0.9146564603,7.170734604,
10.07828006,-2.334198475,6.725028038,0.8883354068,7.173815193,
10.08078611,-2.346162558,6.7202425,0.8572286963,7.169447611,
10.08329215,-2.367697954,6.701099873,0.8234301209,7.154632784,
10.08579824,-2.401197433,6.693921566,0.8018946648,7.156631198,
10.08830428,-2.432304144,6.696314335,0.766002357,7.165437093,
10.09081038,-2.465803623,6.722635269,0.742074132,7.198936483,
10.09331642,-2.458625317,6.725028038,0.7157530785,7.196050516,
10.09582256,-2.458625317,6.725028038,0.7109674215,7.195576088,
10.0983286,-2.46819663,6.739385128,0.6918248534,7.210404159,
10.10083465,-2.472982168,6.739385128,0.6583253145,7.208907332,
10.10334074,-2.456232548,6.739385128,0.632004261,7.20082076,
10.10584678,-2.456232548,6.744170666,0.6152545214,7.203849972,
10.10835288,-2.449054003,6.746563435,0.5673980713,7.199716957,
10.11085892,-2.441875458,6.739385128,0.5386841893,7.188341138,
10.11336506,-2.413161755,6.744170666,0.5195416212,7.181720624,
10.1158711,-2.40598321,6.746563435,0.4812564552,7.17889136,
10.11837715,-2.382055044,6.734599113,0.4501497746,7.157628537,
10.12088324,-2.370090723,6.741777897,0.4166502357,7.158386457,
10.12338928,-2.350948334,6.736992359,0.371186614,7.145054487,
10.12589543,-2.334198475,6.729813576,0.3257229924,7.130565809,
10.12840147,-2.305484533,6.713063717,0.2656033039,7.102888744,
10.13090751,-2.260020971,6.696314335,0.1986042857,7.070202552,
10.13341361,-2.250449657,6.667600155,0.1531406492,7.038811515,
10.13591965,-2.228914261,6.636493683,0.1004985496,7.001514632,
10.13842574,-2.200200319,6.614958286,0.05503492057,6.971483588,
10.14093178,-2.145165443,6.586244106,0.01914258115,6.926811146,
10.14343793,-2.109273195,6.562315941,-0.03349951655,6.893050568,
10.14594397,-2.087737799,6.521637917,-0.07178468257,6.848033533,
10.14845001,-2.054238319,6.483353138,-0.1076770201,6.801864254,
10.1509561,-2.015953064,6.454638958,-0.1172483116,6.763148527,
10.15346215,-2.001596212,6.413661957,-0.1363908947,6.720122735,
10.15596829,-1.968096614,6.368198395,-0.1363908947,6.666780149,
10.15847433,-1.927119493,6.353841305,-0.1411765367,6.641161019,
10.16098038,-1.903191328,6.322734833,-0.1483550072,6.604628847,
10.16348647,-1.874477386,6.286842346,-0.1363908947,6.561756978,
10.16599251,-1.826620936,6.26530695,-0.1411765367,6.527675393,
10.1684986,-1.809871197,6.229414463,-0.1435693651,6.488593874,
10.17100465,-1.800299883,6.205486298,-0.1292124242,6.462649279,
10.17351079,-1.766800404,6.167201042,-0.09571290761,6.416004467,
10.17601683,-1.762014747,6.138487339,-0.05503492057,6.386607207,
10.17852288,-1.738086581,6.104988098,-0.01914258115,6.347613022,
10.18102897,-1.74047935,6.066702843,0.02871387079,6.311495563,
10.18353501,-1.726122379,6.045167446,0.07896314561,6.287271515,
10.18604111,-1.687837243,6.016453266,0.1339980662,6.250156794,
10.18854715,-1.673480392,5.997310638,0.1866401732,6.229213921,
10.19105329,-1.673480392,5.966204166,0.2273181528,6.200629187,
10.19355933,-1.6926229,5.94466877,0.2584248483,6.186343223,
10.19606538,-1.671087503,5.935097694,0.308973223,6.173603691,
10.19857147,-1.663909078,5.927918911,0.3448655605,6.166664276,
10.20107751,-1.671087503,5.925526142,0.3735794425,6.167978202,
10.20358366,-1.66151619,5.911169052,0.3951148391,6.152940057,
10.2060897,-1.666301847,5.915955067,0.4214358926,6.160575818,
10.20859574,-1.711765528,5.925526142,0.4621138871,6.185107156,
10.21110183,-1.733300924,5.932704449,0.4860421121,6.199802505,
10.21360788,-1.781157374,5.961418629,0.50518471,6.24229487,
10.21611397,-1.817049742,5.990132332,0.5386841893,6.282796811,
10.21862001,-1.855334878,6.02363205,0.5578267574,6.327525683,
10.22112616,-1.893620014,6.059524059,0.579362154,6.374895222,
10.2236322,-1.963011861,6.114559174,0.5721837282,6.447374944,
10.22613824,-2.023131609,6.162415504,0.5602195859,6.510166844,
10.22864433,-2.080559254,6.227021694,0.5530411601,6.58865544,
10.23115038,-2.114058733,6.291627884,0.5434698462,6.659518393,
10.23365652,-2.16670084,6.363412857,0.5243272781,6.742591105,
10.23616256,-2.236092806,6.432804585,0.5147559643,6.829792058,
10.2386686,-2.288734913,6.51445961,0.4980062246,6.922752466,
10.2411747,-2.350948334,6.614958286,0.4980062246,7.037942981,
10.24368074,-2.389233351,6.693921566,0.5003990531,7.125126044,
10.24618683,-2.463410854,6.772884369,0.5171487927,7.225496425,
10.24869288,-2.506481647,6.861418724,0.5410770178,7.324908293,
10.25119902,-2.578565598,6.966702938,0.5458626747,7.448618424,
10.25370506,-2.64077878,7.08425045,0.5745765567,7.582246054,
10.2562111,-2.683849812,7.208677292,0.608076036,7.716076372,
10.2587172,-2.762812853,7.34028244,0.6272186637,7.868054678,
10.26122324,-2.834597588,7.476673603,0.632004261,8.020911484,
10.26372939,-2.915953398,7.601399422,0.6487540603,8.167309178,
10.26623543,-3.016452074,7.740182877,0.6487540603,8.332484378,
10.26874147,-3.126821041,7.886145115,0.6774678826,8.510420514,
10.27124756,-3.220141172,8.032107353,0.6966105103,8.681550778,
10.27375361,-3.325425386,8.168797493,0.7109674215,8.848343413,
10.2762597,-3.423531055,8.290831566,0.7229315639,8.998948993,
10.27876574,-3.521636724,8.417651176,0.7468597889,9.155139327,
10.28127189,-3.626920938,8.542078018,0.7755736113,9.312527411,
10.28377793,-3.706183195,8.640183449,0.8306085467,9.438139354,
10.28628397,-3.811467409,8.71705246,0.8668000102,9.553304646,
10.28879006,-3.897608995,8.791230202,0.9122636318,9.659674388,
10.2912961,-3.983750582,8.858229637,0.9601200819,9.760139936,
10.29380225,-4.057928085,8.934800148,0.9864411354,9.862580805,
10.29630829,-4.136891365,8.989834785,1.000798106,9.94648664,
10.29881433,-4.196712017,9.052047729,1.000798106,10.02763964,
10.30132043,-4.249652863,9.121439934,0.9936196208,10.11175039,
10.30382647,-4.314259052,9.174081802,0.9984052777,10.18692403,
10.30633256,-4.352544308,9.253045082,0.9936196208,10.27379021,
10.3088386,-4.388436794,9.322735786,0.9936196208,10.35176603,
10.31134475,-4.42672205,9.408877373,0.9816554785,10.44444776,
10.31385079,-4.453042984,9.506983757,0.9816554785,10.54400206,
10.31635683,-4.472185612,9.588339806,0.9888339639,10.62612333,
10.31886293,-4.493721008,9.707980156,0.9840483069,10.74275376,
10.32136897,-4.515256405,9.80608654,0.9816554785,10.84022699,
10.32387506,-4.522434711,9.916455269,1.000798106,10.94486627,
10.32638111,-4.536791801,10.07438183,1.02711916,11.09642388,
10.32888725,-4.534399033,10.246665,1.036690354,11.25298383,
10.33139329,-4.532006264,10.43360424,1.072582722,11.42583091,
10.33389933,-4.541577339,10.63699436,1.101296663,11.61827991,
10.33640543,-4.55354166,10.8619194,1.12283206,11.83117858,
10.33891147,-4.584648132,11.10150051,1.165902853,12.06737923,
10.34141762,-4.572684288,11.34078312,1.21854496,12.28851721,
10.34392366,-4.601397991,11.57797146,1.297508121,12.52620509,
10.3464297,-4.630111694,11.82682514,1.388435364,12.77652065,
10.34893579,-4.656432629,12.06132126,1.48444736,13.01389332,
10.35144183,-4.716253281,12.25543976,1.561017632,13.22405478,
10.35394793,-4.773980141,12.40618706,1.639980793,13.39380083,
10.35645397,-4.83858633,12.57129192,1.721336842,13.579849,
10.35896012,-4.888835907,12.69123173,1.80508554,13.71956315,
10.36146616,-4.943870544,12.78455257,1.888834357,13.83670249,
10.3639722,-5.015655518,12.83001614,1.968096614,13.91544173,
10.36647829,-5.070690155,12.83480167,2.056631088,13.95255403,
10.36898433,-5.10897541,12.87308693,2.154736757,14.0164506,
10.37149043,-5.152046204,12.8754797,2.267199516,14.05210843,
10.37399647,-5.204688549,12.87308693,2.360519648,14.08464423,
10.37650262,-5.219045162,12.84197998,2.482553482,14.08254075,
10.37900866,-5.254937649,12.79890919,2.595315218,14.07700633,
10.3815147,-5.240580559,12.74866009,2.710170746,14.04767042,
10.38402084,-5.219045162,12.6625185,2.832204819,13.98567808,
10.38652689,-5.175974369,12.59761333,2.923131943,13.92965444,
10.38903293,-5.10897541,12.50668621,2.990130901,13.83689678,
10.39153902,-5.037190914,12.39900875,3.023630619,13.72046109,
10.39404506,-4.989334106,12.27458191,3.069094181,13.60066745,
10.39655116,-4.91754961,12.17647648,3.076272726,13.48748781,
10.3990572,-4.857728958,12.07837009,3.107678413,13.38440211,
10.40156334,-4.79073,12.01107216,3.165106058,13.31295777,
10.40406939,-4.735395908,11.94885921,3.215355396,13.24906492,
10.40657543,-4.670789719,11.90578842,3.284747362,13.20430384,
10.40908152,-4.606183529,11.86750317,3.366103172,13.16758173,
10.41158756,-4.575077057,11.84596729,3.442673683,13.15713773,
10.41409366,-4.512863636,11.80528927,3.535993576,13.12379684,
10.4165997,-4.438685894,11.76461124,3.631706476,13.08805952,
10.41910584,-4.374079704,11.72154045,3.670290947,13.03833269,
10.42161189,-4.290330887,11.66650581,3.670290947,12.96091558,
10.42411793,-4.211368084,11.5899353,3.648755312,12.85984591,
10.42662402,-4.134498596,11.5325079,3.626920938,12.77682952,
10.42913006,-4.04835701,11.47717381,3.600599766,12.69169144,
10.43163621,-3.964607954,11.41256714,3.5766716,12.59989622,
10.43414225,-3.902394533,11.34556866,3.54556489,12.51086095,
10.43664829,-3.785146236,11.28335476,3.514458179,12.40938528,
10.43915439,-3.696611881,11.2378912,3.512065411,12.34057298,
10.44166043,-3.588635683,11.19003487,3.533600807,12.27116625,
10.44416652,-3.490530014,11.15653515,3.538386583,12.21360945,
10.44667256,-3.382853031,11.12064362,3.538386583,12.15041516,
10.44917871,-3.279961586,11.08235836,3.540779352,12.08775965,
10.45168475,-3.186641455,11.0368948,3.507279873,12.01119239,
10.45419079,-3.07148695,10.99143124,3.507279873,11.93928829,
10.45669689,-2.930310488,10.89541912,3.514458179,11.81728792,
10.45920293,-2.741277456,10.79491997,3.46420908,11.66386059,
10.46170907,-2.528316259,10.71595669,3.315854073,11.49865205,
10.46421512,-2.350948334,10.63938713,3.122035265,11.33448811,
10.46672116,-2.207378864,10.579566,2.992523909,11.2140509,
10.46922725,-2.106880426,10.55563831,2.97577405,11.16761732,
10.47173329,-2.013560295,10.51735306,2.978166819,11.11479276,
10.47423944,-1.951047778,10.45274639,2.94227457,11.03283618,
10.47674548,-1.927119493,10.38335514,2.906382322,10.95330597,
10.47925152,-1.929512382,10.28495026,2.889632463,10.85602117,
10.48175762,-1.891227245,10.20359421,2.88006115,10.76962522,
10.48426366,-1.850549221,10.08634567,2.84656167,10.64245342,
10.48676975,-1.795514345,9.9643116,2.798705101,10.50448131,
10.48927579,-1.752443433,9.870991707,2.702992201,10.38333771,
10.49178194,-1.6926229,9.772586823,2.580958366,10.24840337,
10.49428798,-1.618445396,9.669695854,2.444268227,10.10429763,
10.49679402,-1.53230381,9.593125343,2.27677083,9.977960424,
10.49930012,-1.455733418,9.528518677,2.140379906,9.873857103,
10.50180616,-1.374078393,9.497411728,2.011167526,9.804780251,
10.5043123,-1.273579836,9.466305733,1.912762642,9.741232507,
10.50681834,-1.20179522,9.432806015,1.838585138,9.685170953,
10.50932439,-1.108475089,9.451948166,1.778764486,9.68153109,
10.51183048,-1.034297585,9.463912964,1.750050664,9.679777756,
10.51433652,-0.9433703423,9.478269577,1.747657895,9.684102947,
10.51684262,-0.8763712645,9.509376526,1.783550143,9.714799,
10.51934866,-0.8066803217,9.533304214,1.840977907,9.742885714,
10.5218548,-0.7444669604,9.562018394,1.917548299,9.780767777,
10.52436084,-0.7037889361,9.581160545,2.003988981,9.813762179,
10.52686689,-0.6750751138,9.581160545,2.118844509,9.835845966,
10.52937298,-0.6631109715,9.566803932,2.214557409,9.842139918,
10.53187902,-0.660718143,9.538089752,2.312663078,9.836671952,
10.53438517,-0.6702894568,9.495018959,2.413161755,9.819777118,
10.53689121,-0.6942176819,9.425627708,2.516052961,9.780333245,
10.53939725,-0.742074132,9.353842735,2.592922449,9.73490086,
10.54190334,-0.7707880139,9.301200867,2.647957325,9.701449877,
10.54440939,-0.7995018363,9.200403214,2.702992201,9.622514708,
10.54691553,-0.8524430394,9.085547447,2.758027315,9.533128879,
10.54942157,-0.9050851464,8.97308445,2.798705101,9.442890125,
10.55192762,-0.9601200819,8.841479301,2.827419043,9.332089008,
10.55443371,-1.017547846,8.712266922,2.844168901,9.221078857,
10.55693975,-1.077368379,8.566005707,2.877668381,9.100447885,
10.55944584,-1.125224829,8.415258408,2.91116786,8.975388754,
10.56195189,-1.156331539,8.259724617,2.918346405,8.836113349,
10.56445803,-1.20179522,8.108677864,2.944667339,8.710111032,
10.56696407,-1.252044439,7.948358536,2.947060108,8.569082913,
10.56947012,-1.278365493,7.778468132,2.927917719,8.409012248,
10.57197621,-1.31425786,7.634898663,2.903989315,8.273578745,
10.57448225,-1.364507079,7.479066372,2.868097067,8.125533469,
10.5769884,-1.386042476,7.342675209,2.808276415,7.982631733,
10.57949444,-1.41984117,7.184749126,2.743670225,7.82076053,
10.58200048,-1.460519075,7.036394119,2.669492722,7.666169158,
10.58450657,-1.472483277,6.899703979,2.588136673,7.51482358,
10.58701262,-1.508375525,6.765706062,2.504088879,7.370239912,
10.58951876,-1.525125384,6.638886452,2.415554523,7.227428617,
10.5920248,-1.54905355,6.5288167,2.324627161,7.101331272,
10.59453084,-1.568196177,6.396912098,2.226521492,6.952490316,
10.59703694,-1.575374603,6.289235115,2.13559413,6.82620288,
10.59954298,-1.582553029,6.205486298,2.044667006,6.722588597,
10.60204907,-1.604088426,6.119344711,1.946262121,6.618717067,
10.60455512,-1.608874083,6.030810356,1.850549221,6.510275093,
10.60706126,-1.62801671,5.963811398,1.776371717,6.432183243,
10.6095673,-1.635195136,5.903990746,1.721336842,6.363487281,
10.61207334,-1.639980793,5.863013744,1.699801445,6.320901211,
10.61457944,-1.630409479,5.812764645,1.673480392,6.264742972,
10.61708548,-1.654337764,5.779264927,1.651944876,6.234232784,
10.61959163,-1.659123421,5.721837044,1.651944876,6.182316035,
10.62209767,-1.67587316,5.695516109,1.654337764,6.163139463,
10.62460371,-1.697408557,5.676373482,1.66151619,6.153295683,
10.6271098,-1.721336842,5.669195175,1.683051586,6.159175034,
10.62961584,-1.747657895,5.650052547,1.714158297,6.157575868,
10.63212194,-1.812264085,5.671587944,1.733300924,6.201253342,
10.63462798,-1.829013824,5.693123341,1.766800404,6.235264919,
10.63713413,-1.862513304,5.707480431,1.797907114,6.267117253,
10.63964017,-1.927119493,5.726622581,1.812264085,6.308113573,
10.64214621,-1.984846354,5.779264927,1.826620936,6.377778782,
10.64465236,-2.051845312,5.815157413,1.826620936,6.431381576,
10.6471584,-2.114058733,5.855835438,1.840977907,6.492245579,
10.64966444,-2.190629244,5.908776283,1.845763564,6.566531564,
10.65217053,-2.269592285,5.954239845,1.831406593,6.630088339,
10.65467657,-2.365305185,6.004489422,1.812264085,6.703197964,
10.65718267,-2.446661234,6.076273918,1.814656854,6.797075505,
10.65968871,-2.537887573,6.126523495,1.817049742,6.875815096,
10.66219486,-2.635993242,6.160022736,1.790728688,6.935492031,
10.6647009,-2.726920605,6.195915222,1.793121457,7.002909823,
10.66720694,-2.851347208,6.241378784,1.7883358,7.091060214,
10.66971303,-2.930310488,6.274878502,1.773978829,7.148973399,
10.67221907,-3.016452074,6.301199436,1.762014747,7.204775737,
10.67472522,-3.107678413,6.317949295,1.745265007,7.253971213,
10.67723126,-3.203391314,6.34187746,1.718943954,7.309985906,
10.6797373,-3.282354355,6.375376701,1.699801445,7.369437098,
10.6822434,-3.35413909,6.375376701,1.678265929,7.396773191,
10.68474944,-3.440280676,6.396912098,1.656730533,7.449883997,
10.68725553,-3.514458179,6.432804585,1.632802367,7.509889126,
10.68976157,-3.574278831,6.437590122,1.62801671,7.541118893,
10.69226772,-3.658326626,6.490531445,1.618445396,7.624284729,
10.69477376,-3.730111361,6.5288167,1.62801671,7.693478841,
10.6972798,-3.797110319,6.586244106,1.659123421,7.781346203,
10.69978595,-3.888037682,6.646064758,1.687837243,7.882626995,
10.70229199,-3.933501244,6.725028038,1.714158297,7.977265999,
10.70479803,-4.014857292,6.775277138,1.754836321,8.068637424,
10.70730413,-4.091427803,6.866204739,1.800299883,8.193023169,
10.70981017,-4.153641224,6.952346325,1.843370795,8.305773337,
10.71231626,-4.223331928,7.029215813,1.869691849,8.410835578,
10.7148223,-4.304687977,7.129714012,1.896012783,8.541546988,
10.71732845,-4.34775877,7.199106216,1.907976985,8.623833997,
10.71983449,-4.436293125,7.266105175,1.943869352,8.732445772,
10.72234053,-4.486542225,7.34028244,1.960619092,8.823425336,
10.72484663,-4.55354166,7.41924572,2.001596212,8.932319749,
10.72735267,-4.594219685,7.481459141,2.027917147,9.010634458,
10.72985881,-4.65403986,7.572386265,2.075773716,9.127428843,
10.73236486,-4.713860512,7.646862984,2.137987137,9.233958166,
10.7348709,-4.740181446,7.711469173,2.195414782,9.314285964,
10.73737699,-4.768895626,7.78325367,2.264806747,9.404826037,
10.73988303,-4.766502857,7.862216949,2.32701993,9.484146066,
10.74238913,-4.77637291,7.936394691,2.350948334,9.556519081,
10.74489517,-4.759324074,8.010572433,2.35812664,9.611513804,
10.74740131,-4.737788677,8.075178146,2.374876499,9.658943112,
10.74990736,-4.709074974,8.142476082,2.382055044,9.703066015,
10.7524134,-4.639683247,8.202297211,2.370090723,9.717081362,
10.75491954,-4.58943367,8.233403206,2.355733871,9.71603375,
10.75742558,-4.532006264,8.257331848,2.322234392,9.701308293,
10.75993163,-4.474578381,8.271688461,2.307877541,9.683438461,
10.76243772,-4.429114819,8.300402641,2.307877541,9.687106938,
10.76494376,-4.395615101,8.324331284,2.324627161,9.696381535,
10.76744986,-4.331008911,8.348258972,2.336591244,9.690754599,
10.7699559,-4.244867325,8.376973152,2.37248373,9.686137354,
10.77246204,-4.189533234,8.420043945,2.396411896,9.705262425,
10.77496808,-4.129712582,8.453543663,2.446661234,9.721269344,
10.77747413,-4.065106392,8.494221687,2.506481647,9.744708426,
10.77998022,-4.014857292,8.556434631,2.580958366,9.797601684,
10.78248626,-3.957429647,8.604290962,2.650350094,9.834603601,
10.78499241,-3.914358854,8.683254242,2.746062994,9.912717662,
10.78749845,-3.902394533,8.755337715,2.825026274,9.993267486,
10.79000449,-3.878466368,8.836693764,2.930310488,10.08545376,
10.79251058,-3.84257412,8.944371223,3.033201694,10.19644374,
10.79501663,-3.830610037,9.064012527,3.141177893,10.3294189,
10.79752272,-3.82821703,9.162117958,3.258426189,10.45069339,
10.80002876,-3.825824261,9.286844254,3.366103172,10.59306651,
10.80253491,-3.816252947,9.435198784,3.468994617,10.752706,
10.80504095,-3.811467409,9.585947037,3.55992198,10.91286896,
10.80754699,-3.792324781,9.719944954,3.64127779,11.05069958,
10.81005314,-3.76361084,9.8638134,3.69900465,11.18669821,
10.81255918,-3.749253988,10.02413273,3.742075443,11.33769249,
10.81506522,-3.749253988,10.19402313,3.775574923,11.49912949,
10.81757131,-3.761218071,10.36391354,3.79471755,11.66007489,
10.82007736,-3.761218071,10.53170967,3.816252947,11.81640624,
10.82258345,-3.730111361,10.70877838,3.840181351,11.97241237,
10.82508949,-3.725325823,10.88106155,3.847359657,12.12756073,
10.82759564,-3.715754509,11.04885864,3.833002806,12.27094207,
10.83010168,-3.696611881,11.20917797,3.818645954,12.40534833,
10.83260772,-3.672683716,11.36231804,3.797110319,12.53032017,
10.83511381,-3.660719633,11.52293682,3.756432533,12.66055791,
10.83761986,-3.64127779,11.66650581,3.706183195,12.77114152,
10.840126,-3.629313707,11.80528927,3.634099483,12.87413887,
10.84263204,-3.61017108,11.95125198,3.555136204,12.98093805,
10.84513808,-3.59102869,12.09033489,3.44985199,13.07567068,
10.84764418,-3.564707518,12.26979637,3.356531858,13.21065285,
10.85015022,-3.535993576,12.47318649,3.267997503,13.37024456,
10.85265637,-3.516851187,12.72712421,3.212962627,13.58937312,
10.85516241,-3.519243956,13.04297733,3.167499065,13.87578416,
10.85766845,-3.531208038,13.37587833,3.165106058,14.19159779,
10.86017454,-3.540779352,13.78056431,3.215355396,14.58696615,
10.86268058,-3.543172121,14.21366596,3.291925669,15.01396495,
10.86518668,-3.579064369,14.65185165,3.411566973,15.46367511,
10.86769272,-3.617349625,15.10678673,3.535993576,15.93121069,
10.87019886,-3.675076485,15.54497242,3.614956856,16.37743166,
10.87270491,-3.737289906,15.98046589,3.636492252,16.80972045,
10.87521095,-3.799503326,16.37797356,3.607778311,17.19564793,
10.87771704,-3.89043045,16.72283936,3.528815269,17.52830118,
10.88022308,-3.947858334,17.04347801,3.401995659,17.82243818,
10.88272923,-4.005286217,17.30937958,3.256033421,18.0626325,
10.88523527,-4.067499161,17.52712631,3.095714331,18.25727672,
10.88774131,-4.09860611,17.68056679,2.918346405,18.38253953,
10.89024741,-4.132105827,17.80977821,2.772384167,18.4918526,
10.89275345,-4.14646244,17.89352798,2.635993242,18.55586039,
10.89525959,-4.134498596,17.91027832,2.511267424,18.55205143,
10.89776564,-4.086641788,17.86002731,2.384447813,18.47611453,
10.90027168,-4.005286217,17.78585052,2.243271112,18.36875232,
10.90277777,-3.895216227,17.58934021,2.073380709,18.13440118,
10.90528381,-3.773182154,17.32612991,1.893620014,17.83304455,
10.90778996,-3.64127779,16.99562073,1.711765528,17.4653992,
10.910296,-3.476173162,16.6151619,1.527518153,17.04349425,
10.91280204,-3.306282759,16.22244072,1.352542996,16.61109452,
10.91530814,-3.153141975,15.84646797,1.18743825,16.20070557,
10.91781418,-2.980559587,15.51625824,1.060618639,15.83549548,
10.92032027,-2.827419043,15.19532108,0.97926265,15.48712487,
10.92282631,-2.657528639,14.90818214,0.9433703423,15.1725509,
10.92533246,-2.499303341,14.63031578,0.955334425,14.87297283,
10.9278385,-2.350948334,14.39581966,0.9864411354,14.61983748,
10.93034454,-2.190629244,14.1562376,1.055832982,14.36358948,
10.93285064,-2.054238319,13.92891979,1.130010486,14.12485842,
10.93535668,-1.917548299,13.69890976,1.228116274,13.88687833,
10.93786282,-1.797907114,13.47398472,1.326221943,13.65795002,
10.94036886,-1.685444474,13.24905872,1.43659091,13.43287287,
10.94287491,-1.604088426,13.04297733,1.54905355,13.23223051,
10.945381,-1.505982757,12.83001614,1.656730533,13.02390319,
10.94788704,-1.434198022,12.64576817,1.783550143,12.85120335,
10.95039319,-1.381256819,12.45404339,1.896012783,12.67303956,
10.95289923,-1.321436286,12.30329609,2.023131609,12.53835516,
10.95540527,-1.273579836,12.14058399,2.16670084,12.39799894,
10.95791142,-1.24965167,12.00628662,2.293520451,12.28709827,
10.96041746,-1.21854496,11.88903809,2.427518606,12.1953649,
10.9629235,-1.182652593,11.76700401,2.542673111,12.09653823,
10.96542959,-1.17068851,11.6330061,2.662314177,11.99104913,
10.96793564,-1.194616675,11.51097202,2.774776936,11.90079716,
10.97044173,-1.220937729,11.41017437,2.872882605,11.82946417,
10.97294777,-1.280758262,11.29531956,2.932703257,11.73990349,
10.97545392,-1.3310076,11.1948204,2.97577405,11.65979487,
10.97795996,-1.400399446,11.07518005,2.994916677,11.55812518,
10.980466,-1.508375525,10.94596672,3.028416157,11.45690572,
10.98297209,-1.594517231,10.81645584,3.030808926,11.34566018,
10.98547814,-1.716551185,10.68485069,3.042773008,11.24148789,
10.98798428,-1.80508554,10.56042385,3.023630619,11.13208102,
10.99049032,-1.934298038,10.4216404,3.002095222,11.01656358,
10.99299637,-2.047059774,10.30648518,2.961417198,10.91714625,
10.99550246,-2.178664923,10.20359421,2.908775091,10.83147673,
10.9980085,-2.305484533,10.12223816,2.84656167,10.76465873,
11.00051465,-2.427518606,10.0265255,2.805883646,10.69097952,
11.00302069,-2.547458887,9.959526062,2.75084877,10.64184548,
11.00552673,-2.667099953,9.904491425,2.691028118,10.60443326,
11.00803282,-2.825026274,9.868598938,2.619243383,10.59388759,
11.01053887,-2.966202736,9.8638134,2.540280342,10.60877927,
11.01304501,-3.090928555,9.866206169,2.429911375,10.6207501,
11.01555105,-3.258426189,9.832706451,2.281556368,10.60683538,
11.01805709,-3.457030535,9.808479309,2.080559254,10.60594424,
11.02056319,-3.62452817,9.798908234,1.843370795,10.60913865,
11.02306923,-3.770789385,9.782157898,1.642373681,10.61163781,
11.02557532,-3.878466368,9.786943436,1.5011971,10.63392477,
11.02808136,-3.952643871,9.786943436,1.410269856,10.64878005,
11.03058751,-3.993321896,9.746265411,1.342971683,10.61790385,
11.03309355,-3.986143351,9.707980156,1.20179522,10.56307386,
11.03559959,-3.957429647,9.643374443,1.039083242,10.47547679,
11.03810569,-3.892823458,9.581160545,0.8476574421,10.37647508,
11.04061173,-3.816252947,9.526125908,0.7085745931,10.28654166,
11.04311788,-3.739682674,9.459127426,0.5889334679,10.18857992,
11.04562392,-3.646063566,9.396913528,0.5003990531,10.09188598,
11.04812996,-3.557528973,9.337093353,0.4094717801,10.00024959,
11.05063605,-3.466601849,9.238688469,0.3376871049,9.873435349,
11.05314209,-3.375674486,9.138189316,0.2850449979,9.74591878,
11.05564824,-3.277568817,9.028120041,0.2081755698,9.606911361,
11.05815428,-3.203391314,8.906085968,0.1674975902,9.466157543,
11.06066032,-3.155534744,8.788837433,0.1244267747,9.338979868,
11.06316642,-3.095714331,8.654540062,0.06939185411,9.191807555,
11.06567246,-3.042773008,8.520542145,0.04307080805,9.04764948,
11.0681786,-2.985345364,8.396115303,0.01196411345,8.91107077,
11.07068465,-2.918346405,8.290831566,-0.002392822644,8.789461845,
11.07319069,-2.870489836,8.197511673,0.02632104978,8.685597407,
11.07569678,-2.801098108,8.09671402,0.07178468257,8.567851631,
11.07820282,-2.743670225,8.010572433,0.1674975902,8.469064438,
11.08070897,-2.662314177,7.931608677,0.2560320199,8.370417276,
11.08321501,-2.561815739,7.862216949,0.3520440459,8.276550625,
11.08572105,-2.472982168,7.773682594,0.4668995142,8.170910417,
11.08822715,-2.396411896,7.709076405,0.5697908998,8.093040878,
11.09073319,-2.32701993,7.615756035,0.6678966284,7.991298245,
11.09323933,-2.24566412,7.529315472,0.7683951855,7.894556984,
11.09574538,-2.18105793,7.438388348,0.8524430394,7.798287892,
11.09825142,-2.130808592,7.35463953,0.9050851464,7.710398628,
11.10075751,-2.075773716,7.270890713,0.9768698215,7.624235235,
11.10326355,-2.013560295,7.172784805,1.024726272,7.520194868,
11.10576965,-1.955833435,7.065107822,1.031904817,7.403098035,
11.10827569,-1.898405671,6.997809887,1.067797065,7.328947938,
11.11078183,-1.886441588,6.906882763,1.12283206,7.247374918,
11.11328788,-1.876870275,6.827919483,1.182652593,7.179261358,
11.11579392,-1.85294199,6.760920525,1.240080357,7.119075758,
11.11830006,-1.812264085,6.693921566,1.307079315,7.057006687,
11.12080611,-1.819442511,6.643671989,1.352542996,7.019837684,
11.12331215,-1.812264085,6.622136593,1.39561379,7.006049673,
11.12581824,-1.800299883,6.583851337,1.424626827,6.972642232,
11.12832428,-1.812264085,6.569494724,1.43659091,6.964650421,
11.13083038,-1.840977907,6.557530403,1.407876968,6.955035744,
11.13333642,-1.850549221,6.540780544,1.386042476,6.937395498,
11.13584256,-1.893620014,6.509674072,1.340578914,6.910774567,
11.13834861,-1.927119493,6.51445961,1.290329576,6.914978233,
11.14085465,-1.982453585,6.509674072,1.2352947,6.916063312,
11.14336074,-2.032702923,6.512066841,1.189831018,6.924925528,
11.14586678,-2.087737799,6.519245148,1.156331539,6.942356159,
11.14837293,-2.130808592,6.526423931,1.12283206,6.956673517,
11.15087897,-2.159522533,6.524031162,1.103689432,6.960219145,
11.15338501,-2.214557409,6.509674072,1.048654556,6.955558743,
11.15589116,-2.243271112,6.512066841,1.005583763,6.960637796,
11.1583972,-2.298306227,6.51445961,0.9385846853,6.971465896,
11.16090324,-2.334198475,6.50010252,0.8811569214,6.962488981,
11.16340933,-2.35812664,6.495316982,0.8138588071,6.957892649,
11.16591538,-2.367697954,6.483353138,0.742074132,6.941940329,
11.16842147,-2.374876499,6.457031727,0.660718143,6.911573307,
11.17092751,-2.367697954,6.459424496,0.5865406394,6.904649762,
11.17343366,-2.379662037,6.437590122,0.5171487927,6.882790195,
11.1759397,-2.389233351,6.408876419,0.4764707983,6.856322439,
11.17844574,-2.370090723,6.387341022,0.423828721,6.826059343,
11.18095183,-2.362912416,6.365805626,0.371186614,6.800339393,
11.18345788,-2.334198475,6.329913139,0.318544507,6.75409161,
11.18596402,-2.322234392,6.298806667,0.2826521695,6.719198632,
11.18847006,-2.319841623,6.270092487,0.2536391914,6.690295793,
11.1909761,-2.305484533,6.253343105,0.2297109663,6.66875746,
11.1934822,-2.264806747,6.255735874,0.1818545163,6.655573003,
11.19598824,-2.240878344,6.231807709,0.1627119333,6.624457581,
11.19849439,-2.224128723,6.207879066,0.1339980662,6.595639966,
11.20100043,-2.195414782,6.231807709,0.1100698411,6.608130504,
11.20350647,-2.178664923,6.241378784,0.09092725813,6.611327986,
11.20601256,-2.14995122,6.246164322,0.07178468257,6.60621011,
11.2085186,-2.128415823,6.25094986,0.05742774159,6.603622189,
11.21102475,-2.10209465,6.286842346,0.04307080805,6.629105799,
11.21353079,-2.082952023,6.31316328,0.02871387079,6.647972941,
11.21603683,-2.080559254,6.329913139,0.03110669367,6.663144512,
11.21854293,-2.080559254,6.356234074,0.02153540403,6.68811649,
11.22104897,-2.090130568,6.370591164,0.02153540403,6.704740214,
11.22355512,-2.075773716,6.394519329,0.01914258115,6.723026135,
11.22606116,-2.063809633,6.408876419,0.04785645381,6.733149144,
11.2285672,-2.090130568,6.437590122,0.06699903309,6.768729662,
11.23107329,-2.082952023,6.471388817,0.08614161611,6.798895699,
11.23357933,-2.080559254,6.497709751,0.09810572863,6.823385051,
11.23608548,-2.068595171,6.502495766,0.1220339537,6.824692627,
11.23859152,-2.068595171,6.509674072,0.1387837082,6.831852123,
11.24109756,-2.066202402,6.51445961,0.1411765367,6.835737502,
11.24360366,-2.075773716,6.552744865,0.1507478207,6.875320116,
11.2461097,-2.075773716,6.574280262,0.1842473447,6.896661842,
11.24861584,-2.08534503,6.59342289,0.1842473447,6.917791293,
11.25112189,-2.087737799,6.607779503,0.1890329868,6.93232519,
11.25362793,-2.073380709,6.624529362,0.1890329868,6.943992389,
11.25613402,-2.080559254,6.648457527,0.2033899277,6.969367386,
11.25864006,-2.056631088,6.665207386,0.2105683982,6.978471178,
11.26114621,-2.054238319,6.672386169,0.2129612118,6.984696468,
11.26365225,-2.049452543,6.693921566,0.2273181528,7.004321181,
11.26615829,-2.047059774,6.732206345,0.2416750938,7.040700451,
11.26866439,-2.042274237,6.748956203,0.2512463629,7.055665711,
11.27117043,-2.035095692,6.772884369,0.2656033039,7.077013654,
11.27367657,-2.047059774,6.794419765,0.2970091105,7.102310052,
11.27618262,-2.066202402,6.830312252,0.323330164,7.143311573,
11.27868866,-2.07098794,6.851847649,0.3400799036,7.166063186,
11.28119475,-2.097309113,6.873383045,0.347258389,7.194629135,
11.28370079,-2.118844509,6.892525673,0.3664009571,7.220156637,
11.28620694,-2.140379906,6.933203697,0.3807578981,7.266052314,
11.28871298,-2.171486616,6.973881721,0.4046861231,7.315336715,
11.29121902,-2.202593327,7.009773731,0.4334000051,7.360447044,
11.29372512,-2.240878344,7.072286606,0.4573282301,7.432894638,
11.29623116,-2.279163599,7.165606499,0.5027918816,7.536133152,
11.2987373,-2.331805706,7.256533623,0.5219344497,7.639830734,
11.30124334,-2.389233351,7.36899662,0.5769693851,7.768104071,
11.30374939,-2.425125837,7.491030216,0.6152545214,7.897803945,
11.30625548,-2.50169611,7.618149281,0.660718143,8.045572096,
11.30876152,-2.554637194,7.749754429,0.6990033388,8.189839471,
11.31126762,-2.602493763,7.874181271,0.7253243923,8.324770264,
11.31377366,-2.650350094,8.012965202,0.7779664397,8.475682789,
11.3162798,-2.712563515,8.152048111,0.8258228898,8.631099158,
11.31878584,-2.791526794,8.276473999,0.8691928387,8.777706984,
11.32129189,-2.887239695,8.43200779,0.9170492887,8.959681234,
11.32379803,-2.951845884,8.570791245,0.9720842242,9.116841801,
11.32630407,-3.00688076,8.705088615,1.005583763,9.264507457,
11.32881012,-3.088535786,8.834300995,1.041476011,9.416400568,
11.33131621,-3.150749207,8.970691681,1.084546804,9.569575308,
11.33382225,-3.22492671,9.123832703,1.120439172,9.741655886,
11.33632834,-3.282354355,9.255437851,1.15393877,9.887798269,
11.33883439,-3.330210924,9.361021042,1.18743825,10.00644939,
11.34134053,-3.411566973,9.483055115,1.21854496,10.15145188,
11.34384657,-3.44985199,9.581160545,1.242473125,10.2588428,
11.34635262,-3.521636724,9.67926693,1.264008522,10.37727571,
11.34885876,-3.586242914,9.75583744,1.26640141,10.47097297,
11.3513648,-3.660719633,9.83509922,1.264008522,10.5701354,
11.35387084,-3.71336174,9.890133858,1.254437327,10.63848749,
11.35637694,-3.797110319,9.945169449,1.247258782,10.71821331,
11.35888298,-3.864109516,10.00738239,1.2352947,10.7983794,
11.36138913,-3.92392993,10.04088211,1.254437327,10.85311719,
11.36389517,-3.983750582,10.0648098,1.264008522,10.89809077,
11.36640121,-4.038785458,10.09352398,1.268794179,10.9453576,
11.3689073,-4.100998878,10.11745262,1.264008522,10.98993889,
11.37141334,-4.156033993,10.14138031,1.254437327,11.03149247,
11.37391949,-4.189533234,10.18205833,1.261615753,11.08233617,
11.37642553,-4.220939159,10.277771,1.268794179,11.18296663,
11.37893157,-4.264009953,10.39292622,1.273579836,11.30560488,
11.38143767,-4.287938118,10.53888798,1.24965167,11.44623093,
11.38394371,-4.302295208,10.72552872,1.230509043,11.62156886,
11.38644986,-4.328616142,10.96750259,1.223330617,11.85409502,
11.3889559,-4.390829563,11.23071289,1.256830096,12.1238574,
11.39146194,-4.479363918,11.49870968,1.302293777,12.40890787,
11.39396803,-4.520041943,11.76700401,1.323829174,12.67460793,
11.39647407,-4.58943367,12.0158577,1.357328653,12.93391196,
11.39898022,-4.687539577,12.24108219,1.386042476,13.18098002,
11.40148626,-4.756931305,12.42533016,1.415055513,13.37982089,
11.4039923,-4.845765114,12.55932808,1.45334065,13.53995422,
11.4064984,-4.943870544,12.64576817,1.508375525,13.66135078,
11.40900444,-5.030012131,12.72712421,1.587338686,13.77680503,
11.41151053,-5.111368179,12.7630167,1.680658817,13.85082286,
11.41401657,-5.18793869,12.79412365,1.790728688,13.92160253,
11.41652272,-5.254937649,12.79412365,1.934298038,13.96586834,
11.41902876,-5.314758301,12.77976704,2.078166485,13.99599504,
11.4215348,-5.37487793,12.75344563,2.188236237,14.01171174,
11.4240409,-5.415555954,12.70558929,2.291127682,14.0003397,
11.42654694,-5.453841209,12.64098263,2.370090723,13.9698302,
11.42905308,-5.470590591,12.53300667,2.427518606,13.88871715,
11.43155913,-5.458626747,12.38704491,2.451446772,13.75663763,
11.43406517,-5.422734261,12.22911835,2.461018085,13.60198487,
11.43657131,-5.358128071,12.06132126,2.465803623,13.42628744,
11.43907736,-5.247759342,11.87707424,2.475374937,13.21859871,
11.4415834,-5.137689114,11.7023983,2.48733902,13.02032376,
11.44408949,-5.010869503,11.54207897,2.51844573,12.83241868,
11.44659553,-4.888835907,11.38863945,2.57617259,12.65853429,
11.44910168,-4.764110088,11.27856922,2.667099953,12.53061414,
11.45160772,-4.630111694,11.18046379,2.786741018,12.41799623,
11.45411376,-4.498506546,11.0943222,2.899203777,12.31770794,
11.45661986,-4.376472473,10.99860954,3.014059305,12.21505124,
11.4591259,-4.26879549,10.92173958,3.157927752,12.14411454,
11.46163204,-4.182354927,10.8427763,3.284747362,12.076732,
11.46413808,-4.069892406,10.8116703,3.445066452,12.05507038,
11.46664413,-3.964607954,10.80209827,3.653541088,12.07277126,
11.46915022,-3.861716747,10.74706364,3.835395575,12.04667972,
11.47165626,-3.77796793,10.65613651,3.892823458,11.95743959,
11.47416241,-3.677469254,10.61545849,3.931108475,11.90232552,
11.47666845,-3.607778311,10.57717323,4.01964283,11.87645513,
11.47917449,-3.488137245,10.48385334,4.072285175,11.77547404,
11.48168058,-3.277568817,10.41446114,4.045963764,11.64359398,
11.48418663,-3.016452074,10.36391354,3.844966888,11.45833571,
11.48669277,-2.805883646,10.40728283,3.672683716,11.38741079,
11.48919881,-2.621636391,10.49103165,3.66789794,11.41876516,
11.49170486,-2.511267424,10.60588741,3.737289906,11.5220939,
11.49421095,-2.441875458,10.692029,3.813860178,11.61153605,
11.49671699,-2.377269268,10.81884861,3.940679789,11.75703413,
11.49922314,-2.389233351,10.90738297,4.041178226,11.87478676,
11.50172918,-2.410768747,10.96989536,4.182354927,11.98509503,
11.50423522,-2.451446772,11.0368948,4.323830605,12.10446815,
11.50674131,-2.50169611,11.05842972,4.467400074,12.18626336,
11.50924736,-2.585743904,11.03210926,4.53918457,12.20646152,
11.51175345,-2.631207705,10.93848991,4.527220249,12.12722304,
11.51425949,-2.657528639,10.84995556,4.400400639,12.00614509,
11.51676564,-2.664707184,10.74467087,4.184747696,11.83472559,
11.51927168,-2.688635349,10.67049313,3.926322937,11.68350099,
11.52177772,-2.688635349,10.61067295,3.68225503,11.54877234,
11.52428387,-2.650350094,10.59392357,3.452244759,11.4531029,
11.52678991,-2.595315218,10.61306572,3.244069338,11.39722821,
11.52929595,-2.549851656,10.65374374,3.066701412,11.37579258,
11.53180204,-2.46819663,10.68724346,2.920739174,11.35076582,
11.53430808,-2.39162612,10.73988533,2.803490877,11.35449574,
11.53681423,-2.288734913,10.78774166,2.71974206,11.3582866,
11.53932027,-2.178664923,10.81884861,2.643171787,11.34814624,
11.54182631,-2.08534503,10.84038353,2.55942297,11.33195592,
11.54433241,-1.965703845,10.87627602,2.451446772,11.32108488,
11.54683845,-1.83619225,10.88824081,2.319841623,11.28304282,
11.54934459,-1.702194214,10.8619194,2.171486616,11.20687791,
11.55185064,-1.58016026,10.83799076,2.027917147,11.13873414,
11.55435668,-1.455733418,10.81645584,1.85294199,11.07015225,
11.55686277,-1.311864972,10.76620674,1.699801445,10.97822947,
11.55936881,-1.180259824,10.70160007,1.570588946,10.88044149,
11.56187496,-1.060618639,10.65374374,1.496411443,10.81047709,
11.564381,-0.9337990284,10.61306572,1.429412484,10.74952858,
11.56688704,-0.8018946648,10.55803108,1.4054842,10.68131271,
11.56939314,-0.684646368,10.51017475,1.438983679,10.63029576,
11.57189918,-0.6032904387,10.4790678,1.489233017,10.60153934,
11.57440532,-0.5219344497,10.4216404,1.587338686,10.55474529,
11.57691136,-0.4453641176,10.37587738,1.6926229,10.52245945,
11.57941741,-0.4357928336,10.30887794,1.812264085,10.47602888,
11.5819235,-0.4405784607,10.21555805,1.929512382,10.40551554,
11.58442954,-0.4357928336,10.10309505,2.059023857,10.3199818,
11.58693569,-0.4549354017,9.983454704,2.176272154,10.22802496,
11.58944173,-0.4597210586,9.851848602,2.310270309,10.12954161,
11.59194777,-0.4812564552,9.715159416,2.456232548,10.03239795,
11.59445386,-0.4836492836,9.583553314,2.580958366,9.936788055,
11.59695991,-0.4932205677,9.416056633,2.724527597,9.814705277,
11.59946605,-0.5027918816,9.248259544,2.863311291,9.69441364,
11.60197209,-0.4956133962,9.083154678,2.997309446,9.577744801,
11.60447814,-0.4692923427,8.898907661,3.138785124,9.447897381,
11.60698428,-0.4525425732,8.729017258,3.260818958,9.329173455,
11.60949032,-0.4381856322,8.546863556,3.39960289,9.208592895,
11.61199637,-0.4405784607,8.386544228,3.526422262,9.108451429,
11.61450246,-0.4214358926,8.216653824,3.651148319,9.001216158,
11.6170085,-0.4070789516,8.020143509,3.756432533,8.865619017,
11.61951465,-0.4046861231,7.840681553,3.847359657,8.743124979,
11.62202069,-0.4190430641,7.661220074,3.916751623,8.614570992,
11.62452673,-0.4477569461,7.500601768,3.93828702,8.483490898,
11.62703282,-0.4932205677,7.342675209,3.943072557,8.349009938,
11.62953886,-0.5362913609,7.179963589,3.914358854,8.195223658,
11.63204496,-0.5961119533,7.024429798,3.840181351,8.027761597,
11.634551,-0.6583253145,6.86381197,3.773182154,7.860166063,
11.63705715,-0.7253243923,6.7202425,3.660719633,7.686912447,
11.63956319,-0.7851449251,6.607779503,3.535993576,7.535413265,
11.64206923,-0.8476574421,6.471388817,3.409173965,7.363413847,
11.64457532,-0.9050851464,6.353841305,3.244069338,7.19127696,
11.64708136,-0.9720842242,6.248557091,3.0981071,7.041852104,
11.64958751,-1.031904817,6.15045166,2.949453115,6.898706897,
11.65209355,-1.091725349,6.07148838,2.832204819,6.787946636,
11.65459959,-1.163509965,6.00927496,2.717349291,6.696949167,
11.65710574,-1.223330617,5.939883232,2.592922449,6.595604403,
11.65961178,-1.297508121,5.908776283,2.496910334,6.544595152,
11.66211782,-1.347757339,5.855835438,2.384447813,6.464738966,
11.66462392,-1.398006678,5.803193092,2.291127682,6.39380472,
11.66712996,-1.434198022,5.77208662,2.18105793,6.334897127,
11.66963605,-1.489233017,5.74337244,2.099701881,6.29387718,
11.67214209,-1.54905355,5.705087185,2.02073884,6.247477263,
11.67464824,-1.594517231,5.662016392,1.958226204,6.199642303,
11.67715428,-1.639980793,5.640480995,1.881655931,6.168078461,
11.67966032,-1.685444474,5.614160061,1.821835399,6.138289704,
11.68216647,-1.721336842,5.595017433,1.773978829,6.116716561,
11.68467251,-1.759621978,5.573482037,1.752443433,6.101723486,
11.68717855,-1.80508554,5.571089268,1.733300924,6.107348159,
11.68968465,-1.857727647,5.549553871,1.721336842,6.1001394,
11.69219069,-1.919941068,5.571089268,1.697408557,6.132243076,
11.69469683,-1.97527504,5.56630373,1.697408557,6.145457225,
11.69720288,-2.025524378,5.571089268,1.704586983,6.168095445,
11.69970892,-2.090130568,5.604588985,1.695015788,6.21716511,
11.70221501,-2.142772675,5.638088226,1.683051586,6.26196265,
11.70472105,-2.226521492,5.659623623,1.685444474,6.311058594,
11.7072272,-2.303091764,5.695516109,1.6926229,6.372449114,
11.70973324,-2.37248373,5.755336761,1.666301847,6.444310835,
11.71223928,-2.461018085,5.793622017,1.651944876,6.507809767,
11.71474538,-2.54506588,5.819942951,1.64476645,6.56158159,
11.71725142,-2.643171787,5.870192051,1.647159338,6.64519719,
11.71975756,-2.734098911,5.939883232,1.635195136,6.740279876,
11.7222636,-2.839383125,5.997310638,1.632802367,6.833438007,
11.72476965,-2.901596546,6.07148838,1.632802367,6.924469456,
11.72727574,-2.978166819,6.131309032,1.620838284,7.006393137,
11.72978178,-3.057130098,6.210271835,1.618445396,7.108648691,
11.73228793,-3.153141975,6.296413898,1.632802367,7.228635823,
11.73479397,-3.244069338,6.384948254,1.642373681,7.347716746,
11.73730001,-3.327818155,6.480959892,1.64476645,7.468766396,
11.73980616,-3.423531055,6.555137634,1.632802367,7.573403321,
11.7423122,-3.528815269,6.607779503,1.632802367,7.666898378,
11.74481824,-3.617349625,6.701099873,1.630409479,7.787694966,
11.74732433,-3.703790426,6.777669907,1.620838284,7.891893919,
11.74983038,-3.773182154,6.825526714,1.618445396,7.96517947,
11.75233652,-3.852145433,6.894918442,1.618445396,8.062151714,
11.75484256,-3.933501244,6.966702938,1.62801671,8.164424062,
11.7573486,-4.012464523,7.03400135,1.649552107,8.264264559,
11.7598547,-4.093820572,7.103393078,1.680658817,8.369120274,
11.76236074,-4.156033993,7.187141895,1.699801445,8.47448831,
11.76486689,-4.211368084,7.261319637,1.747657895,8.574187549,
11.76737293,-4.278367043,7.364210606,1.802692771,8.705499619,
11.76987897,-4.342973232,7.457530975,1.83619225,8.823139278,
11.77238506,-4.393222332,7.546065331,1.855334878,8.926688744,
11.7748911,-4.450650215,7.622934818,1.888834357,9.026910757,
11.77739725,-4.496113777,7.701898098,1.910369754,9.120514569,
11.77990329,-4.546362877,7.780860901,1.929512382,9.215976877,
11.78240933,-4.575077057,7.874181271,1.93190515,9.309474651,
11.78491543,-4.599005222,7.953144073,1.929512382,9.387564525,
11.78742147,-4.613361835,8.046463966,1.922333837,9.472278351,
11.78992762,-4.627718925,8.140083313,1.905584097,9.555521417,
11.79243366,-4.613361835,8.221439362,1.881655931,9.61331377,
11.7949397,-4.594219685,8.298009872,1.860120535,9.665602452,9.997261691107925
11.79744579,-4.543970108,8.360222816,1.850549221,9.6935815,9.995076425265806
11.79995183,-4.496113777,8.424829483,1.843370795,9.725780524,9.992620441372525
11.80245798,-4.455435753,8.463114738,1.860120535,9.743473058,9.989853749710734
11.80496402,-4.395615101,8.484649658,1.869691849,9.736860867,9.986747944884652
11.80747006,-4.352544308,8.491828918,1.893620014,9.72839129,9.983328682405881
11.80997621,-4.275974274,8.5085783,1.922333837,9.714691352,9.979587695629133
11.81248225,-4.208974838,8.522934914,1.999203324,9.713531936,9.975570773417989
11.81498829,-4.156033993,8.542078018,2.090130568,9.72668295,9.971318496209312
11.81749439,-4.08424902,8.556434631,2.202593327,9.733708493,9.966883353399993
11.82000043,-4.014857292,8.561220169,2.322234392,9.736854853,9.96232208681046
11.82250652,-3.933501244,8.580363274,2.458625317,9.753968648,9.957666901941451
11.82501256,-3.89043045,8.630612373,2.585743904,9.813714412,9.953005054953834
11.82751871,-3.844966888,8.68803978,2.717349291,9.881790969,9.94836113355533
11.83002475,-3.80907464,8.760123253,2.834597588,9.964123268,9.943803629317935
11.83253079,-3.780360699,8.831908226,2.94227457,10.04742303,9.939358466835529
11.83503694,-3.773182154,8.915657043,3.045166016,10.14883639,9.935064425372477
11.83754298,-3.768396616,9.004191399,3.131606579,10.25101144,9.930953597975977
11.84004902,-3.77796793,9.092725754,3.215355396,10.35805067,9.927058589689414
11.84255512,-3.813860178,9.200403214,3.301496983,10.4925131,9.923415707925464
11.84506116,-3.835395575,9.301200867,3.387638569,10.61596401,9.920000610076977
11.8475673,-3.895216227,9.401699066,3.46420908,10.75013485,9.916873665374382
11.85007334,-3.921537161,9.485447884,3.504886866,10.84603186,9.913955279992793
11.85257939,-3.957429647,9.57158947,3.55992198,10.95215134,9.911301046007841
11.85508548,-3.974179268,9.645767212,3.581457376,11.03003912,9.908915083048093
11.85759152,-4.000500202,9.736694336,3.62452817,11.13303296,9.906816181146956
11.86009767,-4.031607151,9.798908234,3.634099483,11.20174709,9.90496457270727
11.86260371,-4.029214382,9.873384476,3.62452817,11.26301443,9.90332560231315
11.86510975,-4.024428368,9.971489906,3.631706476,11.34971042,9.901904914474848
11.86761584,-4.026821613,10.04327488,3.614956856,11.40835552,9.900684176825678
11.87012189,-4.022035599,10.134202,3.5766716,11.47481592,9.899655153295162
11.87262803,-4.024428368,10.23948669,3.54556489,11.55915835,9.898834370811457
11.87513407,-4.045963764,10.35912704,3.512065411,11.66258716,9.898262392932454
11.87764012,-4.036392689,10.48863888,3.457030535,11.75819168,9.89789203535629
11.88014621,-4.038785458,10.61067295,3.394817114,11.85001906,9.897727424124227
11.88265225,-4.03399992,10.72313595,3.337389469,11.93302009,9.897775608652452
11.8851584,-4.010071754,10.8547411,3.279961586,12.02764431,9.8980641041827
11.88766444,-4.000500202,10.98664474,3.198605776,12.12194058,9.89856051605882
11.89017048,-3.978965044,11.137393,3.114856958,12.23012753,9.899293069144559
11.89267657,-3.957429647,11.31446171,3.016452074,12.36031052,9.900283199967403
11.89518262,-3.93828702,11.51336479,2.927917719,12.51560528,9.901520925456625
11.89768876,-3.926322937,11.73829079,2.853740215,12.70225632,9.903019486587013
11.9001948,-3.919144392,12.023036,2.813062191,12.95478315,9.90483661057745
11.90270084,-3.919144392,12.33200932,2.796312332,13.23848591,9.907002464041799
11.90520699,-3.902394533,12.67926788,2.784348249,13.55526143,9.909509429673701
11.90771303,-3.914358854,13.08604813,2.805883646,13.94416881,9.912422216501833
11.91021907,-3.93828702,13.52184105,2.858525753,14.37085451,9.915784457563483
11.91272517,-3.993321896,13.96959782,2.930310488,14.82170714,9.919622194628502
11.91523121,-4.031607151,14.41496181,2.963809967,15.25874011,9.923911802756221
11.91773736,-4.086641788,14.83609867,2.997309446,15.67782921,9.928624368818998
11.9202434,-4.156033993,15.25035572,2.992523909,16.08729833,9.933750455581823
11.92274944,-4.244867325,15.61436462,2.954238653,16.44855031,9.939266249283177
11.92525553,-4.326223373,15.97568035,2.892025232,16.80185648,9.945168200922382
11.92776157,-4.369294167,16.29183197,2.803490877,17.09894972,9.951394409420743
11.93026772,-4.424329281,16.57209206,2.669492722,17.35900677,9.957906284739186
11.93277376,-4.474578381,16.82573128,2.547458887,17.59592656,9.964703948911847
11.9352798,-4.517649174,17.01954842,2.439482689,17.77709926,9.971749031152632
11.9377859,-4.53918457,17.1873455,2.315055847,17.92675446,9.978995050974092
11.94029194,-4.55354166,17.33330727,2.171486616,18.05252438,9.986393865842437
11.94279808,-4.534399033,17.39552116,2.032702923,18.09134634,9.99388468091659
11.94530413,-4.498506546,17.45294952,1.881655931,18.121331,10.001489726381717
11.94781017,-4.448257446,17.41466331,1.742872238,18.05810334,10.009117560423773
11.95031626,-4.357329845,17.30459404,1.606481314,17.91692162,10.016689965369666
11.9528223,-4.235296249,17.12513161,1.458126307,17.70124287,10.024052765774826
11.95532845,-4.081856251,16.86880112,1.297508121,17.40406645,10.031081195004447
11.95783449,-3.926322937,16.55265045,1.156331539,17.05119795,10.037721701566113
11.96034053,-3.727718592,16.220047,1.005583763,16.67324231,10.043955622856872
11.96284663,-3.552743435,15.85843182,0.8955138922,16.27617248,10.049779430197598
11.96535267,-3.346960783,15.52104378,0.8258228898,15.89927451,10.055234249195935
11.96785881,-3.138785124,15.19771385,0.8138588071,15.53978264,10.060322226236737
11.97036486,-2.91116786,14.90339661,0.8401798606,15.20828823,10.065020929547963
11.9728709,-2.683849812,14.61595917,0.8883354068,14.88685501,10.069369813985
11.97537704,-2.48733902,14.35992718,0.9864411354,14.60710204,10.073402509542541
11.97788308,-2.291127682,14.13470268,1.084546804,14.36019943,10.077143221151719
11.98038913,-2.11645174,13.89063454,1.225723386,14.10430763,10.080610212662188
11.98289522,-1.917548299,13.66780281,1.347757339,13.86730958,10.083820349690269
11.98540126,-1.754836321,13.44287777,1.460519075,13.63537785,10.08679812892095
11.98790741,-1.577767372,13.2275238,1.582553029,13.41496217,10.089572406774867
11.99041345,-1.424626827,13.00947762,1.6926229,13.19625105,10.092118692352742
11.99291949,-1.302293777,12.79890919,1.826620936,12.9940213,10.094504071665062
11.99542558,-1.165902853,12.61196995,1.960619092,12.81659638,10.096766510911861
11.99793163,-1.043868899,12.43490124,2.104487419,12.65485276,10.098923899545177
12.00043777,-0.9481559992,12.2674036,2.243271112,12.50681639,10.101007650392184
12.00294381,-0.8401798606,12.11426258,2.389233351,12.37617453,10.103046969109762
12.00544986,-0.7540382147,11.97039413,2.552244425,12.26266125,10.105059410451997
12.007956,-0.7061817646,11.83639622,2.707777977,12.16269007,10.10706906058369
12.01046204,-0.6463612318,11.71436214,2.853740215,12.07426588,10.10913170294661
12.01296808,-0.6104688644,11.59472084,3.009273529,11.99441332,10.111246556526133
12.01547418,-0.5985047817,11.48435211,3.131606579,11.91870426,10.11342278144105
12.01798022,-0.608076036,11.37906837,3.244069338,11.84807746,10.11566537466647
12.02048631,-0.6200401783,11.2570343,3.32063961,11.75295361,10.117961391708507
12.02299236,-0.6702894568,11.14935684,3.378067255,11.66913811,10.12034081479083
12.0254985,-0.7492526174,11.02493,3.428316593,11.56995314,10.122771358743273
12.02800454,-0.8353942037,10.9121685,3.447459221,11.4742442,10.125264094662874
12.03051058,-0.955334425,10.81645584,3.411566973,11.38187902,10.127831948508366
12.03301673,-1.070189953,10.692029,3.380460262,11.26464834,10.13045552312111
12.03552277,-1.21854496,10.60588741,3.342175007,11.18659168,10.133166640222383
12.03802881,-1.390828133,10.4790678,3.291925669,11.07167736,10.135930295366238
12.04053496,-1.575374603,10.36869907,3.229712248,10.97373076,10.138774436646607
12.043041,-1.752443433,10.25623608,3.12921381,10.86523886,10.141691282034778
12.04554704,-1.94865489,10.14855862,2.999702215,10.76051631,10.144669368007415
12.04805314,-2.133201361,10.04806042,2.88006115,10.6681216,10.147721150589904
12.05055918,-2.317448616,9.94277668,2.741277456,10.57090243,10.150849725036808
12.05306527,-2.506481647,9.854242325,2.564208508,10.48635815,10.154038863679215
12.05557131,-2.698206663,9.736694336,2.420340061,10.38949382,10.157267044480065
12.05807746,-2.899203777,9.643374443,2.248056889,10.31764571,10.160539513193923
12.0605835,-3.095714331,9.535696983,2.059023857,10.234869,10.16382646750491
12.06308954,-3.265604734,9.463912964,1.905584097,10.19122532,10.167141186537702
12.06559569,-3.409173965,9.430413246,1.845763564,10.19617596,10.170547419461805
12.06810173,-3.535993576,9.437591553,1.869691849,10.25022597,10.174047452643206
12.07060777,-3.622135162,9.447162628,1.903191328,10.29518733,10.177634294441079
12.07311387,-3.706183195,9.473484039,1.912762642,10.35091081,10.181309697246393
12.07561991,-3.780360699,9.511769295,1.850549221,10.40141406,10.185075160907656
12.07812605,-3.844966888,9.559625626,1.766800404,10.45427167,10.188933514118492
12.08063209,-3.876073599,9.633803368,1.685444474,10.52021088,10.192874032132282
12.08313814,-3.911965847,9.715159416,1.587338686,10.59280149,10.196905742192973
12.08564423,-3.931108475,9.782157898,1.460519075,10.64318293,10.200996381027126
12.08815027,-3.943072557,9.832706451,1.268794179,10.66957244,10.205123362796812
12.09065642,-3.93828702,9.866206169,1.060618639,10.67600303,10.20928164466997
12.09316246,-3.933501244,9.875777245,0.8353942037,10.66308078,10.213426866189163
12.0956685,-3.921537161,9.861420631,0.6104688644,10.63008668,10.217535165068151
12.09817459,-3.907180309,9.808479309,0.3735794425,10.56465266,10.221579311560804
12.10068064,-3.888037682,9.743872643,0.1746760458,10.49239738,10.225557810971228
12.10318678,-3.861716747,9.664909363,-0.03589234129,10.40791129,10.229449763076461
12.10569282,-3.799503326,9.569196701,-0.1890329868,10.29764461,10.233242011901726
12.10819886,-3.732504129,9.449555397,-0.3137588799,10.16484771,10.236854278166003
12.11070501,-3.653541088,9.310771942,-0.4381856322,10.01153551,10.240288495179776
12.11321105,-3.564707518,9.171689034,-0.5386841893,9.854805938,10.243530422217072
12.11571709,-3.488137245,9.023334503,-0.6032904387,9.692864713,10.24656893426205
12.11822319,-3.375674486,8.884550095,-0.6463612318,9.526184518,10.249409319117575
12.12072923,-3.265604734,8.764909744,-0.6367899179,9.375143653,10.25204696241197
12.12323538,-3.165106058,8.616254807,-0.5769693851,9.197316833,10.254460627480865
12.12574142,-3.047558784,8.489435196,-0.5267201066,9.035239818,10.256668049254241
12.12824746,-2.915953398,8.367402077,-0.4453641176,8.872122121,10.258668488605718
12.1307536,-2.784348249,8.266902924,-0.3448655605,8.730017834,10.26047803845022
12.13325965,-2.65513587,8.195118904,-0.2416750938,8.617895752,10.262107893199094
12.13576569,-2.542673111,8.091927528,-0.1363908947,8.483105572,10.263547974830793
12.13827178,-2.432304144,8.003393173,-0.03110669367,8.364889321,10.264809463269765
12.14077782,-2.331805706,7.900502205,0.06699903309,8.237702459,10.265872811051423
12.14328392,-2.224128723,7.802396297,0.1531406492,8.114652711,10.266766161369501
12.14578996,-2.130808592,7.709076405,0.2874378264,8.003300867,10.267515822724656
12.1482961,-2.049452543,7.603792191,0.4286143482,7.886800471,10.268104364478805
12.15080215,-1.982453585,7.500601768,0.5673980713,7.778887432,10.268547455553811
12.15330819,-1.90079844,7.390532017,0.689432025,7.662135128,10.268822699296463
12.15581433,-1.85294199,7.297211647,0.8114659786,7.572395187,10.26894550453747
12.15832038,-1.80508554,7.182356358,0.9218349457,7.462865155,10.268913511374329
12.16082642,-1.75722909,7.077072144,1.017547846,7.362622347,10.268706150008196
12.16333251,-1.70937264,6.99063158,1.091725349,7.278924986,10.268348537418126
12.16583855,-1.673480392,6.899703979,1.130010486,7.189115058,10.267799651707595
12.1683447,-1.637588024,6.823133945,1.185045362,7.116261932,10.267107735917186
12.17085074,-1.639980793,6.782455921,1.24965167,7.088926197,10.26628036141108
12.17335678,-1.606481314,6.736992359,1.302293777,7.047256015,10.26529965659853
12.17586288,-1.599302888,6.686742783,1.352542996,7.007115764,10.264156061575244
12.17836892,-1.584945917,6.686742783,1.434198022,7.020078815,10.262911653348791
12.18087506,-1.572981834,6.698707104,1.465304732,7.035201964,10.261594215515863
12.1833811,-1.568196177,6.696314335,1.498804331,7.038911801,10.260185739732439
12.18588715,-1.568196177,6.727420807,1.510768414,7.071057288,10.25871033915218
12.18839324,-1.587338686,6.768098831,1.510768414,7.114016242,10.257187257614364
12.19089928,-1.587338686,6.803991318,1.505982757,7.147162095,10.255604428933975
12.19340543,-1.616052628,6.832705021,1.474876046,7.174450735,10.2539578299742
12.19591147,-1.66151619,6.861418724,1.41984117,7.201086856,10.25223937339835
12.19841751,-1.702194214,6.885347366,1.352542996,7.220446389,10.250430563580109
12.20092366,-1.747657895,6.899703979,1.28315115,7.232337105,10.24851590998233
12.2034297,-1.785943031,6.916453838,1.220937729,7.246903832,10.246504147072384
12.20593574,-1.83619225,6.926024914,1.12283206,7.252735685,10.244394331653805
12.20844183,-1.886441588,6.921239376,1.051047325,7.250304604,10.242182440761498
12.21094788,-1.93190515,6.894918442,0.9625129104,7.224859094,10.239845695645219
12.21345402,-1.972882271,6.882954121,0.8811569214,7.214136081,10.237407365814079
12.21596006,-2.035095692,6.84945488,0.789930582,7.188924603,10.234857158993071
12.21846611,-2.059023857,6.792026997,0.684646368,7.130213925,10.232198947948847
12.2209722,-2.094916344,6.736992359,0.5841478109,7.079333952,10.229429304035808
12.22347824,-2.111665964,6.686742783,0.4980062246,7.029912687,10.22655991448913
12.22598439,-2.145165443,6.629314899,0.4334000051,6.981216683,10.22359371231594
12.22849043,-2.161915302,6.574280262,0.3544368446,6.929694381,10.220531281469581
12.23099647,-2.173879385,6.504888535,0.2994019389,6.865054111,10.217374495610674
12.23350256,-2.154736757,6.457031727,0.2177468538,6.810547915,10.214150562765077
12.2360086,-2.13559413,6.40648365,0.1651047617,6.755076212,10.210826219493473
12.23851475,-2.121237278,6.372983932,0.1148554832,6.717720117,10.20744800818394
12.24102079,-2.087737799,6.356234074,0.07417750359,6.690729633,10.204024054953212
12.24352683,-2.073380709,6.332305908,0.03110669367,6.66318042,10.200519989151525
12.24603298,-2.056631088,6.298806667,0.007178467698,6.626065831,10.196931757223394
12.24853902,-2.013560295,6.286842346,0.0143569354,6.60144059,10.193274589516072
12.25104506,-1.960619092,6.27966404,0.004785645287,6.5786192,10.189512358618904
12.25355116,-1.93190515,6.262914181,0.02153540403,6.554144896,10.18565307492862
12.2560572,-1.891227245,6.26530695,0.04067798331,6.544651737,10.18170645984804
12.25856334,-1.903191328,6.270092487,0.06939185411,6.552939208,10.177663641057597
12.26106939,-1.874477386,6.274878502,0.1148554832,6.549882248,10.17351374725678
12.26357543,-1.867298961,6.27966404,0.1507478207,6.553145105,10.169233865399045
12.26608157,-1.862513304,6.27966404,0.2105683982,6.55343233,10.164818048607598
12.26858762,-1.872084618,6.289235115,0.2656033039,6.567322458,10.160262506696672
12.27109366,-1.90079844,6.310770512,0.308973223,6.598054532,10.155591187131265
12.27359975,-1.919941068,6.308377743,0.3400799036,6.602837102,10.150771786272076
12.27610579,-1.927119493,6.317949295,0.375972271,6.616012998,10.145797029118617
12.27861189,-1.963011861,6.332305908,0.4022932947,6.641788432,10.140666115188102
12.28111793,-1.965703845,6.339484692,0.4046861231,6.649573567,10.135369959899256
12.28362407,-2.001596212,6.361020088,0.4046861231,6.680773519,10.129948414561365
12.28613012,-2.030309916,6.363412857,0.4094717801,6.691998855,10.124377304768476
12.28863616,-2.054238319,6.368198395,0.399900496,6.703265344,10.118680179999098
12.2911423,-2.08534503,6.375376701,0.3903291821,6.719110719,10.11290066566272
12.29364834,-2.130808592,6.399304867,0.3735794425,6.755072881,10.10704032683843
12.29615439,-2.152343988,6.425626278,0.371186614,6.786680868,10.101112530669502
12.29866053,-2.147558212,6.451947212,0.3640081584,6.809708587,10.095118594549511
12.30116657,-2.190629244,6.488138676,0.3640081584,6.857645507,10.089096663732704
12.30367262,-2.202593327,6.535995007,0.3424727321,6.905645202,10.08304206334667
12.30617871,-2.21216464,6.557530403,0.323330164,6.928161356,10.076930397285317
12.30868475,-2.233700037,6.605386734,0.3209373355,6.980225679,10.070798404970997
12.3111909,-2.240878344,6.655636311,0.3113660514,7.02965001,10.064629663411733
12.31369694,-2.257628202,6.698707104,0.3065803945,7.075560296,10.058391363284125
12.31620298,-2.255235434,6.746563435,0.3017947674,7.119921707,10.052075255007704
12.31870907,-2.307877541,6.789634228,0.304187566,7.177601394,10.045665765256176
12.32121512,-2.32701993,6.827919483,0.2898306549,7.219384186,10.039106024798846
12.32372126,-2.374876499,6.873383045,0.2751746178,7.27730403,10.032387593169206
12.3262273,-2.394019127,6.935596466,0.2874378264,7.342781927,10.02545324778121
12.32873334,-2.441875458,7.002595425,0.2850449979,7.421613644,10.018293867453176
12.33123944,-2.456232548,7.077072144,0.2874378264,7.496709209,10.010859117140457
12.33374548,-2.494517565,7.14885664,0.308973223,7.577877908,10.003147087364049
12.33625163,-2.533101797,7.232605457,0.308973223,7.669592614,9.995184745765707
12.33875767,-2.583351135,7.318747044,0.3161516786,7.767735401,9.987004940201837
12.34126371,-2.628814697,7.400103092,0.3376871049,7.860421431,9.978599620712604
12.3437698,-2.688635349,7.493422985,0.3687937856,7.969702437,9.970030523639426
12.34627584,-2.726920605,7.615756035,0.3879363835,8.098538794,9.961361941973248
12.34878199,-2.769991398,7.713861942,0.4357928336,8.207705758,9.952629854436351
12.35128803,-2.839383125,7.847859859,0.4788636267,8.359444436,9.94391343762877
12.35379407,-2.899203777,7.977072716,0.5315057039,8.504208956,9.935259759521065
12.35630022,-2.961417198,8.106285095,0.5937191248,8.650685075,9.92671200576941
12.35880626,-3.009273529,8.245368004,0.6439684033,8.800938359,9.918312245308597
12.3613123,-3.081058264,8.38175869,0.7061817646,8.957984787,9.910136124563852
12.3638184,-3.141177893,8.513363838,0.7731808424,9.107259248,9.902223136521984
12.36632444,-3.172284603,8.644968987,0.8234301209,9.245372656,9.894605337250725
12.36883058,-3.241676569,8.762516975,0.8907282352,9.385284626,9.887373769386194
12.37133663,-3.308675528,8.896514893,0.9481559992,9.539093813,9.880561561417831
12.37384267,-3.373281717,9.018548965,0.9864411354,9.679169443,9.874203960347904
12.37634881,-3.433102369,9.147761345,1.022333503,9.824097683,9.868333567678098
12.37885486,-3.490530014,9.243474007,1.046261668,9.935807716,9.86289696041202
12.3813609,-3.552743435,9.353842735,1.070189953,10.06288559,9.857919141577744
12.38386699,-3.626920938,9.428020477,1.077368379,10.15888026,9.85334280145136
12.38637303,-3.706183195,9.504590988,1.096511006,10.26037914,9.849162096160317
12.38887918,-3.775574923,9.585947037,1.125224829,10.36395086,9.845352106965713
12.39138522,-3.840181351,9.645767212,1.132403374,10.4436658,9.841876185848827
12.39389126,-3.914358854,9.715159416,1.149153113,10.53693886,9.83868098851615
12.39639736,-3.976572037,9.765408516,1.161117196,10.60775762,9.835719347126826
12.3989034,-4.045963764,9.796515465,1.182652593,10.66490531,9.832960719717601
12.40140954,-4.110570431,9.842277527,1.208973646,10.73446941,9.830397782506978
12.40391558,-4.179962158,9.899705887,1.261615753,10.81979365,9.828030198899343
12.40642163,-4.223331928,9.957133293,1.304686546,10.89418391,9.825847207837407
12.40892777,-4.273581028,10.0145607,1.342971683,10.97080187,9.823833626479374
12.41143381,-4.314259052,10.08873844,1.398006678,11.06118878,9.821982527919229
12.41393986,-4.364508629,10.18205833,1.441376567,11.17142846,9.820315084858066
12.41644595,-4.407579422,10.29452133,1.489233017,11.29697928,9.818852398180127
12.41895199,-4.433900356,10.43838978,1.517946839,11.44218581,9.817589737907516
12.42145814,-4.476971149,10.60828018,1.568196177,11.62059028,9.816551392300472
12.42396418,-4.527220249,10.8116703,1.623231053,11.83312372,9.815789245476156
12.42647022,-4.565505505,11.02014446,1.642373681,12.04096407,9.815321127908417
12.42897631,-4.606183529,11.24267673,1.683051586,12.2656989,9.815141259133386
12.43148236,-4.656432629,11.47717381,1.74047935,12.50748383,9.815231088441136
12.4339885,-4.723432064,11.6832552,1.795514345,12.72922363,9.815554814549213
12.43649454,-4.807479858,11.91296673,1.864906192,12.98108293,9.816158181508634
12.43900058,-4.86730051,12.11904812,1.927119493,13.20135338,9.817050834732495
12.44150673,-4.958227634,12.28415298,1.996810555,13.39670438,9.818202586108727
12.44401277,-5.044369221,12.40618706,2.059023857,13.54986042,9.819567603379555
12.44651881,-5.132903576,12.52582836,2.13559413,13.70415403,9.821201514072179
12.44902491,-5.231009483,12.61196995,2.195414782,13.82913924,9.823104680859034
12.45153095,-5.324329376,12.66730404,2.279163599,13.92851972,9.825217329592155
12.45403709,-5.429912567,12.69601822,2.386840582,14.01320224,9.827488844725945
12.45654314,-5.544768333,12.71994591,2.480160713,14.09583899,9.829840317106719
12.45904918,-5.654838085,12.7127676,2.650350094,14.1638981,9.832238690145182
12.46155527,-5.745765209,12.71516037,3.021237612,14.27644906,9.83473671706655
12.46406131,-5.803193092,12.73908901,3.342175007,14.39206631,9.837330067444263
12.46656746,-5.810371399,12.72712421,3.588635683,14.44362879,9.839997655249853
12.4690735,-5.82233572,12.68166065,3.734897137,14.44553795,9.842714155916676
12.47157954,-5.843871117,12.51147175,3.68225503,14.29149247,9.845343917564595
12.47408569,-5.892026424,12.28893852,3.547957659,14.08268401,9.84782271623571
12.47659173,-5.93031168,12.06371403,3.380460262,13.86107154,9.850179487241183
12.47909777,-5.99491787,11.86271763,3.232105255,13.67880164,9.852437074502554
12.48160386,-6.002096653,11.62582779,3.07148695,13.43945937,9.854523873887093
12.48410991,-5.966204166,11.43649578,2.949453115,13.23209362,9.856503320265194
12.48661605,-5.858228207,11.29771233,2.901596546,13.05283127,9.858379306934
12.48912209,-5.733801365,11.13260746,2.88006115,12.84936493,9.860139722154962
12.49162814,-5.573482037,11.02493,2.906382322,12.69093542,9.861800296119142
12.49413428,-5.410770416,10.97946644,2.997309446,12.60194365,9.863428836148083
12.49664032,-5.235795021,10.91456127,3.028416157,12.47848155,9.865022905212184
12.49914637,-5.06111908,10.85234833,3.045166016,12.35562328,9.866584592057109
12.50165246,-4.893621445,10.76859951,3.057130098,12.21705,9.868105978781653
12.5041585,-4.728217602,10.692029,3.110071182,12.09744058,9.869620179688443
12.50666459,-4.582255363,10.65613651,3.148356438,12.01925363,9.871176529355145
12.50917064,-4.407579422,10.62742233,3.169891834,11.93386258,9.872777296789863
12.51167678,-4.254438877,10.59870911,3.239283562,11.8712191,9.87446185756929
12.51418282,-4.100998878,10.5723877,3.332603693,11.81946787,9.876235898377967
12.51668886,-3.959822416,10.5723877,3.425923824,11.79798835,9.878137884355196
12.51919501,-3.804288864,10.54845905,3.509672642,11.74991082,9.880149865276758
12.52170105,-3.643670797,10.54845905,3.595814228,11.72502474,9.8822784654971
12.52420709,-3.504886866,10.53649521,3.687040567,11.70026629,9.884522334211951
12.52671319,-3.356531858,10.54606628,3.789932013,11.69826504,9.886915944919421
12.52921923,-3.196212769,10.55324554,3.880859137,11.6896465,9.889459083447646
12.53172538,-3.002095222,10.55563831,3.888037682,11.64263342,9.892093657038279
12.53423142,-2.813062191,10.56760216,3.880859137,11.60381842,9.894825369145883
12.53673746,-2.628814697,10.61067295,3.914358854,11.6111693,9.897681192858514
12.53924361,-2.499303341,10.65374374,4.043570995,11.66615787,9.900723924142818
12.54174965,-2.37248373,10.71117115,4.242474556,11.76250215,9.904004213999185
12.54425569,-2.291127682,10.71834946,4.407579422,11.8135108,9.907482635402586
12.54676183,-2.200200319,10.70399284,4.500899315,11.81839409,9.91108672797598
12.54926788,-2.128415823,10.66810036,4.536791801,11.78647526,9.914786314116325
12.55177392,-2.061416626,10.59631634,4.543970108,11.71234489,9.91853335372591
12.55428001,-2.047059774,10.55085278,4.548755646,11.67056665,9.92234678427952
12.55678605,-2.035095692,10.49342442,4.53918457,11.61282769,9.926211216454778
12.5592922,-2.042274237,10.43599701,4.498506546,11.54631884,9.930137161503868
12.56179824,-2.068595171,10.35194874,4.450650215,11.45644866,9.934052230928275
12.56430428,-2.104487419,10.25623608,4.421936035,11.36541966,9.937953581176709
12.56681038,-2.161915302,10.16291618,4.376472473,11.27440705,9.941829504781046
12.56931642,-2.188236237,10.0839529,4.309473515,11.18239894,9.9456692275851
12.57182256,-2.216950178,10.00977516,4.223331928,11.0881468,9.94946390047439
12.57432861,-2.214557409,9.928419113,4.141676903,10.98322622,9.953201222768286
12.57683465,-2.221735716,9.88534832,4.065106392,10.91701933,9.95690773070647
12.57934074,-2.214557409,9.854242325,3.976572037,10.85465253,9.960565717269436
12.58184678,-2.16670084,9.815657616,3.878466368,10.77423911,9.96416922177161
12.58435293,-2.142772675,9.784550667,3.799503326,10.71284892,9.967708255499872
12.58685897,-2.078166485,9.751050949,3.708575964,10.6374483,9.971176256184055
12.58936501,-2.011167526,9.72712326,3.643670797,10.58007838,9.974601701784012
12.59187111,-1.943869352,9.717552185,3.552743435,10.52765095,9.977972721532481
12.59437715,-1.876870275,9.696016312,3.471387386,10.46832865,9.98127561309006
12.59688329,-1.793121457,9.681659698,3.390031576,10.41355526,9.984490231867209
12.59938933,-1.716551185,9.664909363,3.306282759,10.35801751,9.987652198856772
12.60189538,-1.637588024,9.638588905,3.200998545,10.28739434,9.99074401710867
12.60440152,-1.561017632,9.593125343,3.112463951,10.20550154,9.99373911449251
12.60690756,-1.491625786,9.528518677,3.028416157,10.10885355,9.996639060709562
12.6094136,-1.41984117,9.487840652,2.951845884,10.0373534,9.999475593351052
12.6119197,-1.357328653,9.428020477,2.884846687,9.952499767,10.00222424314454
12.61442574,-1.316650629,9.337093353,2.825026274,9.843559042,10.00486808522921
12.61693189,-1.299900889,9.260522842,2.789133787,9.758396022,10.007438140112916
12.61943793,-1.26640141,9.176474571,2.772384167,9.669414256,10.009925833744648
12.62194397,-1.285543919,9.085547447,2.748456001,9.578820698,10.01232576308244
12.62445012,-1.323829174,8.997013092,2.73649168,9.496691791,10.014664826337096
12.62695616,-1.36211431,8.884550095,2.717349291,9.390131679,10.01689657155941
12.6294622,-1.43659091,8.798408508,2.702992201,9.31568315,10.019067200222995
12.63196829,-1.505982757,8.702695847,2.664707184,9.225267662,10.021161902076594
12.63447433,-1.556231976,8.599505424,2.657528639,9.134320444,10.023193333775856
12.63698048,-1.618445396,8.47986412,2.64077878,9.02780004,10.02515093126375
12.63948652,-1.6926229,8.365009308,2.621636391,8.928120203,10.027040239952392
12.64199256,-1.766800404,8.238189697,2.595315218,8.816179118,10.02885490443764
12.64449871,-1.824228168,8.113463402,2.580958366,8.707321222,10.030590742072558
12.64700475,-1.874477386,7.98903656,2.578565598,8.6015912,10.03226552212738
12.64951079,-1.919941068,7.881359577,2.568994284,8.508920855,10.033881392414065
12.65201689,-1.936690807,7.756932735,2.566601276,8.396917223,10.035430276103218
12.65452293,-1.968096614,7.651648521,2.573779821,8.309360502,10.036937772350795
12.65702907,-2.02073884,7.529315472,2.573779821,8.209647952,10.038384271776058
12.65953512,-2.063809633,7.402495861,2.578565598,8.10587785,10.039770026891107
12.66204116,-2.087737799,7.30439043,2.585743904,8.024888798,10.041128135539273
12.6645473,-2.109273195,7.184749126,2.580958366,7.920290368,10.04240726488726
12.66705334,-2.128415823,7.096214771,2.588136673,7.847602783,10.043650238822561
12.66955939,-2.173879385,7.007380962,2.573779821,7.775183734,10.044863665578962
12.67206548,-2.190629244,6.928418159,2.568994284,7.707241161,10.04604323134621
12.67457152,-2.238485575,6.851847649,2.535494804,7.641162724,10.047195800196091
12.67707767,-2.264806747,6.78484869,2.489732027,7.573789469,10.048306940384808
12.67958371,-2.300698996,6.713063717,2.444268227,7.505523799,10.049396459717252
12.68208975,-2.334198475,6.646064758,2.370090723,7.432091854,10.050441944363618
12.68459584,-2.367697954,6.583851337,2.286342144,7.360737221,10.05145506856198
12.68710189,-2.408375978,6.545566559,2.200200319,7.313384844,10.05245695784296
12.68960803,-2.45383954,6.507281303,2.10209465,7.265317637,10.053435003965248
12.69211407,-2.48733902,6.459424496,1.999203324,7.204709165,10.054389556336696
12.69462012,-2.511267424,6.423233509,1.90079844,7.153840052,10.055314182468772
12.69712621,-2.547458887,6.384948254,1.80508554,7.10742181,10.056220975092323
12.69963225,-2.602493763,6.363412857,1.721336842,7.087241882,10.057121873751974
12.7021384,-2.64077878,6.349055767,1.647159338,7.070880821,10.058019150881867
12.70464444,-2.691028118,6.329913139,1.568196177,7.054691484,10.058907178089692
12.70715048,-2.73649168,6.31316328,1.505982757,7.043607129,10.059782807015935
12.70965663,-2.769991398,6.31316328,1.443769336,7.043674669,10.060673541627619
12.71216267,-2.813062191,6.308377743,1.376471281,7.042983872,10.061555949681782
12.71466871,-2.848954439,6.339484692,1.307079315,7.072062209,10.062442904735356
12.71717486,-2.882453918,6.34187746,1.240080357,7.075715484,10.063318817713045
12.7196809,-2.932703257,6.361020088,1.177866936,7.1028653,10.064179388142554
12.72218694,-2.985345364,6.380162239,1.1395818,7.135643196,10.065032234526738
12.72469303,-3.030808926,6.404090881,1.094118118,7.169049952,10.065873758795293
12.72719907,-3.064308405,6.40648365,1.048654556,7.178627664,10.06667749123771
12.72970522,-3.105285645,6.413661957,1.005583763,7.196461445,10.067426577738752
12.73221126,-3.153141975,6.435197353,0.9816554785,7.233098698,10.068149509592143
12.7347173,-3.184248686,6.416054726,0.955334425,7.22619276,10.068787046911805
12.7372234,-3.239283562,6.416054726,0.926620543,7.246884977,10.069374413495678
12.73972944,-3.291925669,6.408876419,0.8883354068,7.259449797,10.06989127218766
12.74223558,-3.306282759,6.416054726,0.8377870321,7.266302432,10.070327782561206
12.74474163,-3.344567776,6.394519329,0.8018946648,7.260788257,10.070665818351573
12.74724767,-3.382853031,6.382555485,0.7468597889,7.262128386,10.070890003757102
12.74975381,-3.413959742,6.380162239,0.7253243923,7.272392095,10.071037269808082
12.75225986,-3.457030535,6.370591164,0.6942176819,7.281306894,10.071093080277528
12.7547659,-3.488137245,6.353841305,0.6750751138,7.279706531,10.071047878516191
12.75727199,-3.507279873,6.349055767,0.6750751138,7.284727013,10.070883987104686
12.75977803,-3.533600807,6.346662998,0.6822535396,7.296021914,10.070597762964464
12.76228418,-3.55992198,6.337091446,0.7061817646,7.302771062,10.07018445765438
12.76479022,-3.571886063,6.332305908,0.7325028181,7.307053342,10.069623456318322
12.76729626,-3.586242914,6.317949295,0.7731808424,7.305849037,10.068908393870837
12.76980241,-3.595814228,6.320342064,0.8210372925,7.317834789,10.068058919481322
12.77230845,-3.593421459,6.31316328,0.8476574421,7.313496532,10.067039931634834
12.77481449,-3.593421459,6.334698677,0.9002995491,7.338366602,10.065867877722807
12.77732058,-3.61017108,6.337091446,0.9433703423,7.354047241,10.064540374186512
12.77982663,-3.600599766,6.351448536,1.015154958,7.371279181,10.063063309954867
12.78233277,-3.61017108,6.404090881,1.094118118,7.432550686,10.061496911647108
12.78483881,-3.619742393,6.432804585,1.180259824,7.475060071,10.05981683239248
12.78734486,-3.602992773,6.478567123,1.26640141,7.52044955,10.058024754530484
12.789851,-3.61017108,6.531209469,1.345364571,7.582877961,10.056169493138317
12.79235704,-3.631706476,6.591030121,1.441376567,7.662149593,10.054278338085789
12.79486308,-3.638885021,6.643671989,1.53230381,7.728377363,10.052347041060745
12.79736918,-3.643670797,6.69152832,1.594517231,7.784303009,10.050371204133494
12.79987522,-3.679862022,6.744170666,1.659123421,7.859892684,10.048368516011877
12.80238136,-3.706183195,6.818347931,1.74047935,7.953296848,10.046375326219946
12.80488741,-3.732504129,6.870990276,1.80508554,8.024987742,10.044372674324473
12.80739345,-3.754039526,6.94756031,1.840977907,8.10867478,10.042369598717485
12.80989959,-3.804288864,7.03400135,1.8840487,8.215803568,10.04039847825562
12.81240564,-3.856930971,7.122535706,1.922333837,8.324770193,10.038449458243562
12.81491168,-3.87368083,7.21346283,1.958226204,8.41867561,10.036516367822278
12.81741777,-3.911965847,7.30439043,1.999203324,8.523755644,10.034595675706157
12.81992381,-3.92392993,7.373782158,1.994417667,8.587641774,10.032639315419729
12.82242996,-3.959822416,7.452745438,2.003988981,8.674075165,10.030687267256141
12.824936,-3.995714664,7.543672562,2.015953064,8.771362389,10.028715875888192
12.82744204,-4.024428368,7.625327587,2.023131609,8.856337053,10.026731985955559
12.82994814,-4.04835701,7.685148239,2.023131609,8.91873082,10.024705850505844
12.83245418,-4.050749779,7.742575645,2.037488461,8.972592191,10.022582018818882
12.83496032,-4.077070713,7.79761076,2.051845312,9.035225971,10.020364260958829
12.83746637,-4.079463482,7.852645874,2.068595171,9.08763751,10.018026067561633
12.83997241,-4.08424902,7.893323898,2.097309113,9.131503585,10.015539291236525
12.84247855,-4.077070713,7.919644833,2.106880426,9.15326308,10.012861375738726
12.84498459,-4.072285175,7.945965767,2.087737799,9.16954348,10.00996353998681
12.84749064,-4.067499161,7.979465485,2.063809633,9.191067895,10.006866090673059
12.84999673,-4.065106392,8.01775074,2.039881229,9.21794621,10.00355783179463
12.85250277,-4.050749779,8.060821533,2.027917147,9.246505584,10.00002781672736
12.85500892,-4.024428368,8.082356453,2.013560295,9.250672115,9.996264595523176
12.85751496,-4.01964283,8.127820015,2.008774519,9.287311869,9.992327852613904
12.860021,-3.990929127,8.15444088,2.001596212,9.296709566,9.988230761347028
12.86252715,-3.967000723,8.168797493,2.018345833,9.302691391,9.983953603742936
12.86503319,-3.952643871,8.190332413,2.032702923,9.318627569,9.979552668157726
12.86753923,-3.909573078,8.211868286,2.066202402,9.326775154,9.97504274082842
12.87004532,-3.888037682,8.25254631,2.087737799,9.35841903,9.970485718121903
12.87255137,-3.883252144,8.271688461,2.128415823,9.382464022,9.965915628112954
12.87505751,-3.837788343,8.30279541,2.190629244,9.405524306,9.961304701821906
12.87756355,-3.811467409,8.35304451,2.260020971,9.455597876,9.956708191270714
12.88006959,-3.79471755,8.41047287,2.32701993,9.515826655,9.952139373698886
12.88257569,-3.782753468,8.475078583,2.394019127,9.584753954,9.94764158690248
12.88508173,-3.751646757,8.566005707,2.480160713,9.674838723,9.943239419295367
12.88758788,-3.734897137,8.683254242,2.583351135,9.799084852,9.938990833730152
12.89009392,-3.720540047,8.819944382,2.676671267,9.939738739,9.93494489439186
12.89259996,-3.696611881,8.953942299,2.779562712,10.07789616,9.931093136115908
12.8951061,-3.703790426,9.133403778,2.872882605,10.26599155,9.9275222308883
12.89761215,-3.715754509,9.301200867,2.987738132,10.45206909,9.92425383889359
12.90011819,-3.720540047,9.49262619,3.102892876,10.65740655,9.92131057799998
12.90262433,-3.708575964,9.67926693,3.174677372,10.84067896,9.918663769150415
12.90513038,-3.734897137,9.866206169,3.239283562,11.03559871,9.916314965748246
12.90763642,-3.766003847,10.06002426,3.311068296,11.24055365,9.914242561622595
12.91014251,-3.77796793,10.24905777,3.361317635,11.4286781,9.91242217480584
12.91264855,-3.792324781,10.43838978,3.41635251,11.6195169,9.910837387868984
12.9151547,-3.821038723,10.61545849,3.461816072,11.80137561,9.909471181748014
12.91766074,-3.837788343,10.78774166,3.49531579,11.97168418,9.908285728193672
12.92016678,-3.82821703,10.94357395,3.485744476,12.10650532,9.907268436669566
12.92267293,-3.847359657,11.09671497,3.488137245,12.25179011,9.906432167258545
12.92517897,-3.861716747,11.24507046,3.476173162,12.38742288,9.90578125745073
12.92768501,-3.854538202,11.40060329,3.454637766,12.5206127,9.905340954568159
12.9301911,-3.876073599,11.55165005,3.413959742,12.65384078,9.90513494944449
12.93269715,-3.892823458,11.6832552,3.361317635,12.76522552,9.905123345452292
12.93520329,-3.871287823,11.8220396,3.296711445,12.86918009,9.905300834089084
12.93770933,-3.847359657,11.96800137,3.198605776,12.97175053,9.90567268841022
12.94021538,-3.835395575,12.17169094,3.107678413,13.13461018,9.906296437644231
12.94272152,-3.840181351,12.37508011,3.016452074,13.30370563,9.907190758003065
12.94522756,-3.840181351,12.63141155,2.966202736,13.53136761,9.908381552626784
12.94773361,-3.849752426,12.88983631,2.930310488,13.76790447,9.909878290843796
12.9502397,-3.856930971,13.19880962,2.947060108,14.06305995,9.911727741338657
12.95274574,-3.864109516,13.54816151,2.978166819,14.39977431,9.913977100482937
12.95525189,-3.897608995,13.93849087,3.035594702,14.78809382,9.916677434656759
12.95775793,-3.931108475,14.32882023,3.100499868,15.17833332,9.919844575586751
12.96026397,-3.95503664,14.69731522,3.19382,15.55165186,9.923456939159545
12.96277012,-4.007678986,15.05414486,3.251247883,15.91412521,9.927553776452704
12.96527616,-4.069892406,15.38435364,3.239283562,16.23992977,9.932129845640896
12.9677822,-4.132105827,15.72204113,3.205784082,16.56906538,9.937200258960356
12.97028834,-4.191926003,16.02144241,3.153141975,16.85826696,9.942724037806059
12.97279439,-4.249652863,16.25593948,3.07148695,17.08066597,9.94859065287624
12.97530043,-4.29750967,16.45454407,2.970988512,17.26404885,9.954687084411681
12.97780652,-4.352544308,16.61037636,2.892025232,17.41301395,9.96098530560068
12.98031256,-4.378865242,16.73958969,2.825026274,17.53194505,9.967484414471127
12.98281866,-4.395615101,16.82333755,2.753241539,17.60472827,9.974135836768175
12.9853247,-4.400400639,16.84965897,2.67188549,17.6185557,9.980898371306385
12.98783084,-4.381258488,16.80658722,2.600100994,17.5618144,9.98769056048205
12.99033689,-4.357329845,16.72523117,2.533101797,17.46815061,9.994516257676336
12.99284293,-4.290330887,16.57926941,2.439482689,17.29827127,10.001310047637055
12.99534907,-4.203890324,16.36840248,2.34137702,17.06104745,10.007987757367992
12.99785512,-4.089034557,16.10519218,2.202593327,16.76152846,10.014500882454943
13.00036116,-3.950251102,15.7938261,2.068595171,16.4112313,10.020807816121287
13.0028673,-3.804288864,15.47318745,1.910369754,16.04810444,10.026877960140405
13.00537334,-3.636492252,15.15703583,1.769193292,15.68725138,10.032691354419764
13.00787939,-3.454637766,14.88425446,1.616052628,15.36512866,10.038251702837522
13.01038548,-3.263211966,14.64945889,1.508375525,15.08411067,10.043594581004726
13.01289152,-3.081058264,14.44846153,1.43659091,14.84300354,10.048752413591126
13.01539767,-2.877668381,14.26391506,1.390828133,14.61761441,10.053688496911038
13.01790371,-2.698206663,14.09402466,1.366899967,14.41493204,10.05842365119874
13.02040975,-2.511267424,13.94088364,1.376471281,14.23198418,10.06297153243934
13.0229159,-2.315055847,13.78056431,1.41984117,14.04561801,10.067302351446829
13.02542194,-2.145165443,13.60558987,1.450947881,13.84987582,10.07140934155348
13.02792798,-2.018345833,13.43091393,1.494018674,13.66364741,10.075292221192294
13.03043407,-1.886441588,13.25623703,1.539482236,13.47800013,10.078956459148149
13.03294012,-1.776371717,13.08604813,1.62801671,13.30603587,10.082426649051868
13.03544626,-1.67587316,12.90897942,1.718943954,13.13031107,10.08571482020596
13.0379523,-1.589731574,12.74387455,1.829013824,12.97223483,10.088850383087953
13.04045834,-1.513161182,12.58564854,1.960619092,12.82701185,10.091857617826339
13.04296449,-1.474876046,12.41336536,2.104487419,12.67658338,10.094753867962122
13.04547053,-1.450947881,12.26979637,2.260020971,12.56028851,10.097579255614045
13.04797657,-1.410269856,12.12622738,2.432304144,12.44790565,10.100325711383162
13.05048267,-1.393221021,11.9727869,2.583351135,12.32730279,10.103030499463202
13.05298871,-1.417448282,11.83400345,2.738884687,12.229239,10.105726609588466
13.05549486,-1.429412484,11.70957661,2.896811008,12.14697157,10.108430691038834
13.0580009,-1.460519075,11.5899353,3.033201694,12.06896967,10.11116757169489
13.06050694,-1.505982757,11.45324516,3.162713289,11.97695972,10.113923452557348
13.06301308,-1.558624864,11.33360481,3.284747362,11.90249868,10.116725503346505
13.06551913,-1.62801671,11.19960594,3.382853031,11.81208306,10.119562197653158
13.06802517,-1.687837243,11.05364418,3.492922783,11.71462137,10.122440705671703
13.07053126,-1.759621978,10.88345432,3.59102869,11.59488398,10.125325478618969
13.0730373,-1.821835399,10.72313595,3.665505171,11.47783329,10.128234228993488
13.07554345,-1.879263043,10.5723877,3.703790426,11.35892049,10.131184137239462
13.07804949,-1.943869352,10.41206837,3.706183195,11.22165717,10.134132215665407
13.08055553,-2.003988981,10.26341438,3.672683716,11.08342241,10.137090104603574
13.08306168,-2.08534503,10.134202,3.64127779,10.96857411,10.140076046980422
13.08556772,-2.159522533,10.00738239,3.595814228,10.85085803,10.143106144474089
13.08807376,-2.238485575,9.916455269,3.550350666,10.76809605,10.146208071369852
13.09057986,-2.293520451,9.851848602,3.512065411,10.70764962,10.149400897410061
13.0930859,-2.389233351,9.786943436,3.44985199,10.64867018,10.15267932767723
13.09559204,-2.480160713,9.739087105,3.390031576,10.60628723,10.156058186294155
13.09809808,-2.580958366,9.693623543,3.327818155,10.56891939,10.159525774415563
13.10060413,-2.683849812,9.655338287,3.251247883,10.53561674,10.16310890083744
13.10311027,-2.786741018,9.638588905,3.165106058,10.52075178,10.166803449733731
13.10561631,-2.901596546,9.605089188,3.059522867,10.4898847,10.170570745835372
13.10812236,-3.021237612,9.595518112,2.935096025,10.47934317,10.174431371935771
13.1106285,-3.133999348,9.581160545,2.801098108,10.46263542,10.178383732262036
13.11313454,-3.241676569,9.552447319,2.676671267,10.43658401,10.18238813303033
13.11564058,-3.323032379,9.518947601,2.549851656,10.39974284,10.186424388586246
13.11814668,-3.411566973,9.511769295,2.427518606,10.39256421,10.190496051588186
13.12065272,-3.500101328,9.497411728,2.305484533,10.38107883,10.19461238745038
13.12315886,-3.569493294,9.468698502,2.169093609,10.34903381,10.198727188475333
13.12566491,-3.636492252,9.447162628,2.035095692,10.32543326,10.2028703057045
13.12817095,-3.696611881,9.420842171,1.896012783,10.29621635,10.207003382589951
13.13067709,-3.754039526,9.399306297,1.742872238,10.27021788,10.211120304784844
13.13318314,-3.785146236,9.370592117,1.582553029,10.22935984,10.215190489591262
13.13568918,-3.806681633,9.351449966,1.417448282,10.19556772,10.21922848144437
13.13819527,-3.821038723,9.291629791,1.26640141,10.12612925,10.223153357354164
13.14070131,-3.821038723,9.253045082,1.108475089,10.07213469,10.2269902271261
13.14320746,-3.818645954,9.1860466,0.9625129104,9.994595548,10.230717705420355
13.1457135,-3.801896095,9.09990406,0.8234301209,9.896499633,10.234306091481011
13.14821954,-3.773182154,9.03051281,0.684646368,9.811004323,10.237739317022344
13.15072569,-3.746861219,8.95154953,0.5937191248,9.722227645,10.241030163092141
13.15323173,-3.694219112,8.870193481,0.50518471,9.621995575,10.244159913087332
13.15573777,-3.636492252,8.77448082,0.4692923427,9.509775227,10.247103156749999
13.15824387,-3.564707518,8.692825317,0.4573282301,9.406460588,10.249879528999012
13.16074991,-3.485744476,8.585148811,0.4597210586,9.277205297,10.252453536330897
13.16325605,-3.409173965,8.484649658,0.4860421121,9.156854475,10.254813315301128
13.16576209,-3.325425386,8.376973152,0.5410770178,9.029113884,10.256966614089023
13.16826814,-3.236890793,8.286046028,0.5530411601,8.913017183,10.258944139241128
13.17077428,-3.16032052,8.164011955,0.5745765567,8.773189569,10.260714418987305
13.17328032,-3.069094181,8.048856735,0.5913262963,8.63441374,10.26225777251252
13.17578636,-2.985345364,7.941180229,0.6415755749,8.508010907,10.263616810020519
13.17829251,-2.927917719,7.828717709,0.6870391965,8.386509762,10.2647985440462
13.18079855,-2.865704298,7.73300457,0.7253243923,8.278750889,10.265823323722017
13.18330459,-2.786741018,7.642077446,0.7803592682,8.171672643,10.266685010458769
13.18581069,-2.712563515,7.558029652,0.8476574421,8.074672512,10.267390245873003
13.18831673,-2.647957325,7.459923744,0.902692318,7.96724505,10.267960717731448
13.19082288,-2.614457846,7.371389389,0.9457631707,7.878276419,10.268389110152414
13.19332892,-2.54506588,7.268497944,0.97926265,7.763206685,10.268642427710985
13.19583496,-2.50169611,7.187141895,1.012762189,7.677185637,10.26877849445512
13.1983411,-2.446661234,7.108178616,1.046261668,7.589928715,10.268744138440994
13.20084715,-2.396411896,7.029215813,1.051047325,7.50049101,10.268551150610694
13.20335319,-2.353341103,6.954739094,1.053440213,7.417300485,10.268187104893796
13.20585928,-2.322234392,6.899703979,1.070189953,7.358260264,10.2676627381622
13.20836532,-2.279163599,6.861418724,1.10608232,7.314169243,10.266999641406432
13.21087147,-2.240878344,6.794419765,1.12283206,7.241990578,10.266172994560012
13.21337751,-2.214557409,6.746563435,1.1395818,7.191594355,10.265171565746499
13.21588355,-2.171486616,6.70588541,1.149153113,7.141764918,10.264007557326543
13.2183897,-2.137987137,6.684350014,1.141974568,7.110248239,10.262706969987057
13.22089574,-2.106880426,6.660421848,1.127617717,7.076134965,10.261241557963897
13.22340178,-2.097309113,6.636493683,1.120439172,7.049619696,10.259667343662962
13.22590788,-2.078166485,6.610172749,1.103689432,7.01650127,10.257951399160955
13.22841392,-2.073380709,6.598208427,1.079761267,7.000081886,10.256128055710517
13.23092006,-2.068595171,6.598208427,1.070189953,6.99719565,10.254192931611394
13.23342611,-2.073380709,6.586244106,1.02711916,6.98086619,10.252163163342336
13.23593215,-2.075773716,6.581458569,1.015154958,6.975311677,10.25001104617722
13.23843829,-2.078166485,6.591030121,0.9984052777,6.98264041,10.247759728420613
13.24094433,-2.094916344,6.602993965,0.9720842242,6.99522348,10.245440665936558
13.24345038,-2.094916344,6.622136593,0.9457631707,7.009695822,10.24304553572185
13.24595652,-2.114058733,6.643671989,0.8883354068,7.028282978,10.240589672634261
13.24846256,-2.13559413,6.660421848,0.8476574421,7.045601793,10.238078755346416
13.2509686,-2.169093609,6.689135551,0.8042874932,7.077879618,10.235545121160087
13.2534747,-2.178664923,6.727420807,0.7755736113,7.113809527,10.232999987576099
13.25598074,-2.200200319,6.741777897,0.7253243923,7.128712796,10.230425634357376
13.25848689,-2.23130703,6.734599113,0.6702894568,7.126208265,10.22783476125951
13.26099293,-2.26241374,6.741777897,0.6176473498,7.138037083,10.225256764591887
13.26349897,-2.269592285,6.744170666,0.5721837282,7.138787105,10.2226942434039
13.26600512,-2.300698996,6.744170666,0.5195416212,7.144716743,10.220155521685966
13.26851116,-2.317448616,6.734599113,0.4908277392,7.139068929,10.217607483676838
13.2710172,-2.331805706,6.739385128,0.4573282301,7.146032386,10.215057134527626
13.27352334,-2.315055847,6.746563435,0.4286143482,7.145579893,10.212511959822585
13.27602939,-2.322234392,6.741777897,0.4094717801,7.142269172,10.209968091640148
13.27853543,-2.288734913,6.758527756,0.3879363835,7.146082813,10.207408912028438
13.28104152,-2.293520451,6.768098831,0.3807578981,7.156282165,10.204843924848852
13.28354756,-2.271985054,6.782455921,0.3640081584,7.162131411,10.202261347834394
13.28605371,-2.252842426,6.789634228,0.3496512175,7.162170615,10.19962591676561
13.28855975,-2.219342947,6.787241459,0.3305086195,7.148521923,10.196939835087743
13.29106579,-2.193022013,6.78484869,0.3257229924,7.137899745,10.194165017170835
13.29357189,-2.157129526,6.7704916,0.318544507,7.112962456,10.191284712140995
13.29607793,-2.152343988,6.775277138,0.3113660514,7.115751103,10.188315009480972
13.29858407,-2.142772675,6.765706062,0.3137588799,7.10385092,10.185222416659853
13.30109012,-2.130808592,6.746563435,0.3065803945,7.081698594,10.181974696349561
13.30359616,-2.109273195,6.713063717,0.3137588799,7.043628505,10.178567631464297
13.3061023,-2.099701881,6.7202425,0.3017947674,7.0470907,10.175021655656177
13.30860834,-2.092523336,6.689135551,0.2994019389,7.015185661,10.171284135317713
13.31111439,-2.075773716,6.681957245,0.2898306549,7.002955872,10.167374222231542
13.31362053,-2.056631088,6.669992924,0.3065803945,6.986596351,10.163310119007868
13.31612657,-2.047059774,6.662814617,0.2898306549,6.976213454,10.159099634255552
13.31863262,-2.02073884,6.653243542,0.2994019389,6.959789983,10.154721731745246
13.32113871,-2.001596212,6.655636311,0.2898306549,6.956140015,10.150178742269716
13.32364475,-1.999203324,6.650850773,0.2994019389,6.951278404,10.145469945780494
13.3261509,-1.984846354,6.650850773,0.318544507,6.948014224,10.140601553761194
13.32865694,-1.980060697,6.667600155,0.3352942765,6.963472872,10.135592614263086
13.33116298,-1.963011861,6.662814617,0.3544368446,6.955008243,10.130420061775808
13.33366913,-1.955833435,6.69152832,0.3879363835,6.982286898,10.12513140660165
13.33617517,-1.960619092,6.70588541,0.399900496,6.998060215,10.119724118490147
13.33868121,-1.963011861,6.717849731,0.3951148391,7.009924131,10.114203722445064
13.34118736,-1.955833435,6.736992359,0.3951148391,7.026269722,10.108569434258216
13.3436934,-1.980060697,6.751348972,0.3807578981,7.046015178,10.102844307919314
13.34619944,-1.999203324,6.780063152,0.4070789516,7.080380184,10.097050549227763
13.34870553,-2.011167526,6.806384087,0.4142574072,7.109378901,10.091178990083021
13.35121157,-2.027917147,6.842276573,0.4405784607,7.150056366,10.08525337577565
13.35371772,-2.051845312,6.887740135,0.4405784607,7.200357126,10.079243080049396
13.35622376,-2.078166485,6.935596466,0.4405784607,7.253646232,10.07312648172626
13.3587298,-2.094916344,6.983452797,0.4573282301,7.305233505,10.066842342112393
13.36123595,-2.13559413,7.053143978,0.4668995142,7.384145003,10.06035070295767
13.36374199,-2.145165443,7.09860754,0.4836492836,7.431411738,10.053590516911234
13.36624803,-2.185843468,7.151249409,0.4812564552,7.493322864,10.046496873626342
13.36875413,-2.202593327,7.196712971,0.4884349108,7.54205964,10.039024968323265
13.37126017,-2.248056889,7.251748085,0.4884349108,7.607902387,10.031169195605376
13.37376631,-2.271985054,7.294818878,0.4860421121,7.655882411,10.022893867321606
13.37627236,-2.293520451,7.345067978,0.4980062246,7.710918872,10.014227354534183
13.3787784,-2.343769789,7.400103092,0.5003990531,7.778507685,10.005196141763571
13.38128454,-2.37248373,7.464709282,0.5147559643,7.849556511,9.995850050342506
13.38379058,-2.410768747,7.524529934,0.5602195859,7.921123826,9.986242872979956
13.38629663,-2.441875458,7.582256794,0.5817549825,7.986977695,9.976407412498247
13.38880277,-2.482553482,7.661220074,0.6248258352,8.077609308,9.9664223893084
13.39130881,-2.542673111,7.735397339,0.660718143,8.169339447,9.956334452033015
13.39381486,-2.595315218,7.833503246,0.7109674215,8.28280803,9.946234720526718
13.39632095,-2.643171787,7.917252064,0.7396813035,8.379520617,9.936122388547963
13.39882699,-2.681456804,8.015357971,0.789930582,8.488825851,9.92605535401122
13.40133314,-2.748456001,8.115856171,0.8282157183,8.608546512,9.916111849094733
13.40383918,-2.805883646,8.209475517,0.8620143533,8.718459729,9.906354194297293
13.40634522,-2.870489836,8.314759254,0.9050851464,8.842743493,9.896828185472756
13.40885136,-2.915953398,8.424829483,0.9433703423,8.964958652,9.88765874294834
13.41135741,-2.973381281,8.551649094,0.9696913958,9.105602663,9.878931301060506
13.41386345,-3.052344322,8.668897629,1.003190875,9.245160025,9.870711061887276
13.41636959,-3.102892876,8.791230202,1.053440213,9.382079137,9.863049646766996
13.41887564,-3.169891834,8.891729355,1.067797065,9.500066091,9.85593861833802
13.42138168,-3.22492671,8.997013092,1.089332461,9.619409653,9.849357322418891
13.42388777,-3.270390272,9.109476089,1.127617717,9.744204887,9.843266031824317
13.42639381,-3.339782238,9.193224907,1.146760225,9.848075375,9.837626982337321
13.42889996,-3.375674486,9.284450531,1.163509965,9.947359214,9.832401790652325
13.431406,-3.41635251,9.36580658,1.194616675,10.04076224,9.827569580060144
13.43391204,-3.452244759,9.463912964,1.206580877,10.14590951,9.823095652097354
13.43641819,-3.497708559,9.554840088,1.232901812,10.24934052,9.818981403139706
13.43892423,-3.547957659,9.624231339,1.2352947,10.33149483,9.815188039552737
13.44143027,-3.595814228,9.696016312,1.259222865,10.4176895,9.811718850725079
13.44393636,-3.634099483,9.751050949,1.280758262,10.48475157,9.80854565226613
13.44644241,-3.665505171,9.813264847,1.297508121,10.55554937,9.805668328765327
13.44894855,-3.684647799,9.851848602,1.319043517,10.60072762,9.803036825877854
13.45145459,-3.720540047,9.904491425,1.354935765,10.6666405,9.800679563188883
13.45396064,-3.76361084,9.94277668,1.383649707,10.72091699,9.798549276826428
13.45646678,-3.801896095,9.973882675,1.383649707,10.76323539,9.796639472657846
13.45897282,-3.837788343,10.0145607,1.4054842,10.81644263,9.794917560133046
13.46147886,-3.864109516,10.05763149,1.431805253,10.86910115,9.793388662342446
13.46398501,-3.868895054,10.09113121,1.438983679,10.90274975,9.792004313825997
13.46649105,-3.876073599,10.17966557,1.455733418,10.98948121,9.790798430141647
13.46899709,-3.885644913,10.26102161,1.479661703,11.07141363,9.789773305538338
13.47150319,-3.919144392,10.35434151,1.508375525,11.17350784,9.788955764252778
13.47400923,-3.935894251,10.48863888,1.525125384,11.30614065,9.788361107755836
13.47651538,-3.943072557,10.65852928,1.556231976,11.4705678,9.788002211381762
13.47902142,-3.964607954,10.85713387,1.575374603,11.66521655,9.78792752443983
13.48152746,-3.990929127,11.06800079,1.608874083,11.87504243,9.788142772003313
13.4840336,-4.041178226,11.30010509,1.654337764,12.1144678,9.788699114618645
13.48653965,-4.08424902,11.51815128,1.728515267,12.34247398,9.789584682884817
13.48904569,-4.141676903,11.71196938,1.7883358,12.55077126,9.790789793967958
13.49155178,-4.208974838,11.89382362,1.83619225,12.74951417,9.792297820251296
13.49405782,-4.285545349,12.05414295,1.867298961,12.9288463,9.79409458553045
13.49656397,-4.357329845,12.18604755,1.924726725,13.08398454,9.796162006476306
13.49907006,-4.438685894,12.27218914,1.94865489,13.19491624,9.798439776465548
13.50157611,-4.510470867,12.33200932,1.977667928,13.27908023,9.80088737996392
13.50408215,-4.58943367,12.36311626,2.025524378,13.3421248,9.803464846026916
13.50658824,-4.658825874,12.40379429,2.078166485,13.41184354,9.806185710045321
13.50909428,-4.701896667,12.42054367,2.145165443,13.45286111,9.808996725682388
13.51160043,-4.754538536,12.4301157,2.209771633,13.49060798,9.811882900397256
13.51410647,-4.824229717,12.40857983,2.295913219,13.50989501,9.81479890781684
13.51661251,-4.857728958,12.38225937,2.379662037,13.51224145,9.817702369998466
13.51911866,-4.891228676,12.35354519,2.451446772,13.51087665,9.82059249654895
13.5216247,-4.900799751,12.30090332,2.520838737,13.47904628,9.823464707446256
13.52413074,-4.91754961,12.19083309,2.566601276,13.3935114,9.826252274606414
13.52663689,-4.874478817,12.06132126,2.609672308,13.26824795,9.828911383911453
13.52914293,-4.83858633,11.92493057,2.659921408,13.14119739,9.831440943483663
13.53164897,-4.788337231,11.74786186,2.700599432,12.97049224,9.833777510960527
13.53415506,-4.735395908,11.56122208,2.748456001,12.79217889,9.835920909805987
13.5366611,-4.642076015,11.39342499,2.801098108,12.61765245,9.837920658405718
13.53916725,-4.572684288,11.21874905,2.856132984,12.44697824,9.839804562796731
13.54167329,-4.476971149,11.07039356,2.923131943,12.29396538,9.841623051376876
13.54417933,-4.386044025,10.92891788,2.997309446,12.15164566,9.843398221956157
13.54668548,-4.278367043,10.80209827,3.088535786,12.02201335,9.845133693642053
13.54919152,-4.179962158,10.70399284,3.186641455,11.92485766,9.846869971378046
13.55169756,-4.091427803,10.60349464,3.277568817,11.82862365,9.84860670904773
13.55420371,-4.007678986,10.50538826,3.378067255,11.74035825,9.850346817705367
13.55670975,-3.933501244,10.4168539,3.476173162,11.66477849,9.852138160839763
13.55921579,-3.861716747,10.32084274,3.583850145,11.58777947,9.853980021526324
13.56172189,-3.789932013,10.27298546,3.66789794,11.54778291,9.855920893079341
13.56422793,-3.703790426,10.22991467,3.722932816,11.49910633,9.857953841868362
13.56673407,-3.617349625,10.20359421,3.76361084,11.46138384,9.860076245846873
13.56924012,-3.483351469,10.14377308,3.773182154,11.36955467,9.862253992958436
13.57174616,-3.334996462,10.11027431,3.770789385,11.2941888,9.86450053227646
13.5742523,-3.215355396,10.09113121,3.816252947,11.25758526,9.86684704677067
13.57675834,-3.112463951,10.11505985,3.92392993,11.2871207,9.869344705626528
13.57926439,-3.073879719,10.14377308,4.103391647,11.3658564,9.872024964624686
13.58177048,-3.066701412,10.1844511,4.309473515,11.47602997,9.874933142957584
13.58427652,-3.069094181,10.22034359,4.484149456,11.57507488,9.878039153402245
13.58678267,-3.076272726,10.2275219,4.613361835,11.63394883,9.88130268496214
13.58928871,-3.078665495,10.20598698,4.632504463,11.62327187,9.884649406211773
13.59179475,-3.083451033,10.17488003,4.582255363,11.57725866,9.888055754456685
13.5943009,-3.102892876,10.15813065,4.488935471,11.53109293,9.891493806508285
13.59680694,-3.105285645,10.14377308,4.374079704,11.47482045,9.894977328718761
13.59931298,-3.095714331,10.14377308,4.247260094,11.42448239,9.898507254122057
13.60181913,-3.064308405,10.15813065,4.156033993,11.39518419,9.902104150425869
13.60432517,-3.011666298,10.19402313,4.053142548,11.37612439,9.905769876181523
13.60683121,-2.959024191,10.22991467,3.943072557,11.35582667,9.909501467622432
13.6093373,-2.877668381,10.26580715,3.852145433,11.33608381,9.913317356566251
13.61184334,-2.805883646,10.31127071,3.754039526,11.32643366,9.917240692191342
13.61434949,-2.75084877,10.33041382,3.655933857,11.29825079,9.921209995047779
13.61685553,-2.691028118,10.33041382,3.550350666,11.25006986,9.925212689990737
13.61936157,-2.638386011,10.33041382,3.433102369,11.20110362,9.92923453225265
13.62186772,-2.568994284,10.33519936,3.325425386,11.15681547,9.933272271964512
13.62437376,-2.513660192,10.30887794,3.203391314,11.08391483,9.937299180102695
13.6268798,-2.46819663,10.28973579,3.066701412,11.01704656,9.94129638897352
13.62938595,-2.386840582,10.26102161,2.923131943,10.93299012,9.945223329413032
13.63189199,-2.319841623,10.22512913,2.765205622,10.84349081,9.949094177994295
13.63439803,-2.233700037,10.20120144,2.607279301,10.76344889,9.952892976464364
