"Time (s)","Acceleration x (m/s^2)","Acceleration y (m/s^2)","Acceleration z (m/s^2)","Absolute acceleration (m/s^2)"
2.633540000E-4,6.631109715E-1,9.765408516E0,-4.334000051E-1,9.797487188E0
2.795177000E-3,7.013961077E-1,9.767801285E0,-4.692923427E-1,9.804189601E0
5.350073000E-3,7.277171612E-1,9.770194054E0,-5.219344497E-1,9.811150783E0
7.906219000E-3,7.348956466E-1,9.782157898E0,-5.769693851E-1,9.826676876E0
1.046231300E-2,7.181459069E-1,9.782157898E0,-5.673980713E-1,9.824881030E0
1.301840700E-2,6.894320250E-1,9.786943436E0,-5.458626747E-1,9.826369848E0
1.557450000E-2,6.367899179E-1,9.774979591E0,-5.027918816E-1,9.808594552E0
1.813059400E-2,5.650052428E-1,9.760622978E0,-4.621138871E-1,9.787877252E0
2.068668800E-2,5.147559643E-1,9.741479874E0,-4.477569461E-1,9.765341270E0
2.324278200E-2,4.980062246E-1,9.746265411E0,-4.238287210E-1,9.768179485E0
2.579887500E-2,5.027918816E-1,9.739087105E0,-3.999004960E-1,9.760252954E0
2.835496900E-2,5.051847100E-1,9.743872643E0,-4.094717801E-1,9.765548259E0
3.091106300E-2,5.386841893E-1,9.748658180E0,-3.927220106E-1,9.771425052E0
3.346715700E-2,5.458626747E-1,9.748658180E0,-3.424727321E-1,9.769932955E0
3.602325000E-2,5.817549825E-1,9.763015747E0,-3.065803945E-1,9.785137039E0
3.857934400E-2,6.152545214E-1,9.772586823E0,-2.775674164E-1,9.795868262E0
4.113543800E-2,6.487540603E-1,9.789336205E0,-1.986042857E-1,9.812819616E0
4.369153200E-2,6.966105103E-1,9.789336205E0,-1.076770201E-1,9.814681038E0
4.624762500E-2,7.372884750E-1,9.784550667E0,-5.982056633E-2,9.812471888E0
4.880371900E-2,7.636095285E-1,9.808479309E0,-9.571290575E-3,9.838163318E0
5.135981300E-2,7.779664397E-1,9.803693771E0,4.546362907E-2,9.834617953E0
5.391590700E-2,7.971090674E-1,9.782157898E0,6.460621208E-2,9.814793425E0
5.647200000E-2,7.779664397E-1,9.777372360E0,3.349951655E-2,9.808331370E0
5.902809400E-2,7.660023570E-1,9.743872643E0,-2.871387079E-2,9.773977602E0
6.158418800E-2,7.803592682E-1,9.724730492E0,-5.264209956E-2,9.756132170E0
6.414028200E-2,8.018946648E-1,9.731908798E0,-4.785645381E-2,9.765007637E0
6.669637500E-2,8.234301209E-1,9.751050949E0,-5.024927482E-2,9.785885589E0
6.925246900E-2,8.401798606E-1,9.746265411E0,-5.024927482E-2,9.782541421E0
7.180856300E-2,8.572286963E-1,9.739087105E0,-5.503492057E-2,9.776895597E0
7.436465700E-2,8.715856671E-1,9.753444672E0,-4.067798331E-2,9.792394969E0
7.692075000E-2,8.715856671E-1,9.760622978E0,-2.392822690E-2,9.799489530E0
7.947684400E-2,8.715856671E-1,9.772586823E0,-4.785645287E-3,9.811377971E0
8.203293800E-2,8.811569214E-1,9.798908234E0,-7.178467698E-3,9.838449655E0
8.458903200E-2,8.835497499E-1,9.813264847E0,-3.110669367E-2,9.853009426E0
8.714512500E-2,9.026923180E-1,9.794121742E0,-5.982056633E-2,9.835814792E0
8.970121900E-2,9.122636318E-1,9.782157898E0,-9.571290761E-2,9.825069925E0
9.225731300E-2,8.763712645E-1,9.760622978E0,-1.268195957E-1,9.800707665E0
9.481340700E-2,8.234301209E-1,9.731908798E0,-1.387837082E-1,9.767668449E0
9.736950000E-2,7.229315639E-1,9.691230774E0,-1.627119333E-1,9.719519491E0
9.992559400E-2,6.391827464E-1,9.686445236E0,-1.866401732E-1,9.709305354E0
1.024816880E-1,5.530411601E-1,9.710372925E0,-2.105683982E-1,9.728388146E0
1.050377820E-1,4.956133962E-1,9.729516029E0,-2.679961324E-1,9.745816371E0
1.075938750E-1,4.645066857E-1,9.734301567E0,-3.113660514E-1,9.750350880E0
1.101499690E-1,4.860421121E-1,9.741479874E0,-3.568296731E-1,9.760122667E0
1.127060630E-1,5.147559643E-1,9.736694336E0,-3.664009571E-1,9.757173769E0
1.152621570E-1,5.913262963E-1,9.743872643E0,-3.903291821E-1,9.769599671E0
1.178182500E-1,6.822535396E-1,9.753444672E0,-3.903291821E-1,9.785065647E0
1.203743440E-1,7.420741320E-1,9.789336205E0,-4.046861231E-1,9.825759421E0
1.229304380E-1,7.803592682E-1,9.791728973E0,-4.070789516E-1,9.831206953E0
1.254865320E-1,7.803592682E-1,9.777372360E0,-3.855435550E-1,9.816038646E0
1.280426250E-1,7.372884750E-1,9.779765129E0,-3.687937856E-1,9.814448998E0
1.305987190E-1,7.085745931E-1,9.786943436E0,-3.664009571E-1,9.819398629E0
1.331548130E-1,6.415755749E-1,9.798908234E0,-3.448655605E-1,9.825942909E0
1.357109070E-1,5.745765567E-1,9.794121742E0,-3.664009571E-1,9.817800598E0
1.382670000E-1,4.884349108E-1,9.786943436E0,-3.999004960E-1,9.807280504E0
1.408230940E-1,3.903291821E-1,9.774979591E0,-4.453641176E-1,9.792902128E0
1.433791880E-1,2.898306549E-1,9.734301567E0,-4.621138871E-1,9.749573224E0
1.459352820E-1,1.986042857E-1,9.679266930E0,-4.668995142E-1,9.692556273E0
1.484913750E-1,1.339980662E-1,9.664909363E0,-4.310071766E-1,9.675442918E0
1.510474690E-1,1.028913707E-1,9.676874161E0,-3.807578981E-1,9.684908711E0
1.536035630E-1,1.220339537E-1,9.691230774E0,-3.185445070E-1,9.697232430E0
1.561596570E-1,1.722832322E-1,9.722337723E0,-2.826521695E-1,9.727971246E0
1.587157500E-1,2.488535494E-1,9.748658180E0,-2.727817893E-1,9.755648328E0
1.612718440E-1,3.376871049E-1,9.763015747E0,-2.608176768E-1,9.772335182E0
1.638279380E-1,4.621138871E-1,9.767801285E0,-2.512463629E-1,9.781953584E0
1.663840320E-1,6.008976102E-1,9.767801285E0,-2.321037948E-1,9.789018952E0
1.689401250E-1,7.396813035E-1,9.767801285E0,-1.914258152E-1,9.797638196E0
1.714962190E-1,8.476574421E-1,9.772586823E0,-1.842473447E-1,9.811010316E0
1.740523130E-1,9.457631707E-1,9.782157898E0,-1.938186288E-1,9.829681927E0
1.766084070E-1,1.000798106E0,9.791728973E0,-1.842473447E-1,9.844465461E0
1.791645000E-1,9.960124493E-1,9.815657616E0,-1.842473447E-1,9.867782036E0
1.817205940E-1,9.672985673E-1,9.810872078E0,-1.890329868E-1,9.860254100E0
1.842766880E-1,9.122636318E-1,9.791728973E0,-1.818545163E-1,9.835814775E0
1.868327820E-1,8.428717852E-1,9.791728973E0,-1.866401732E-1,9.829711272E0
1.893888750E-1,7.636095285E-1,9.774979591E0,-1.842473447E-1,9.806491351E0
1.919449690E-1,7.301099896E-1,9.784550667E0,-2.177468538E-1,9.814168637E0
1.945010630E-1,7.013961077E-1,9.774979591E0,-2.656033039E-1,9.803709891E0
1.970571570E-1,6.559324861E-1,9.763015747E0,-2.751746178E-1,9.788893961E0
1.996132500E-1,6.487540603E-1,9.734301567E0,-2.512463629E-1,9.759130779E0
2.021693440E-1,6.296114326E-1,9.693623543E0,-2.033899277E-1,9.716178025E0
2.047254380E-1,6.008976102E-1,9.657731056E0,-1.651047617E-1,9.677815181E0
2.072815320E-1,6.415755749E-1,9.657731056E0,-1.363908947E-1,9.679978866E0
2.098376250E-1,7.157530785E-1,9.684052467E0,-1.124626622E-1,9.711118499E0
2.123937190E-1,7.947162390E-1,9.688838005E0,-8.374879509E-2,9.721736967E0
2.149498130E-1,8.955138922E-1,9.724730492E0,-5.742774159E-2,9.766044553E0
2.175059070E-1,9.888339639E-1,9.767801285E0,-6.699903309E-2,9.817954136E0
2.200620000E-1,1.084546804E0,9.791728973E0,-9.332008660E-2,9.852050888E0
2.226180940E-1,1.146760225E0,9.803693771E0,-8.135596663E-2,9.870870750E0
2.251741880E-1,1.163509965E0,9.827920914E0,-7.896314561E-2,9.896869207E0
2.277302820E-1,1.149153113E0,9.830313683E0,-1.100698411E-1,9.897865191E0
2.302863750E-1,1.106082320E0,9.823135376E0,-1.172483116E-1,9.885906831E0
2.328424690E-1,1.024726272E0,9.803693771E0,-1.435693651E-1,9.858148287E0
2.353985630E-1,9.290133715E-1,9.789336205E0,-1.914258152E-1,9.835182409E0
2.379546570E-1,8.596215248E-1,9.763015747E0,-2.249253243E-1,9.803367638E0
2.405107500E-1,7.755736113E-1,9.755837440E0,-2.727817893E-1,9.790418198E0
2.430668440E-1,7.253243923E-1,9.734301567E0,-3.376871049E-1,9.767126243E0
2.456229380E-1,7.013961077E-1,9.719944954E0,-4.046861231E-1,9.753617650E0
2.481790320E-1,6.918248534E-1,9.705587387E0,-4.214358926E-1,9.739335520E0
2.507351250E-1,7.157530785E-1,9.693623543E0,-4.334000051E-1,9.729669852E0
2.532912190E-1,7.420741320E-1,9.686445236E0,-4.190430641E-1,9.723862012E0
2.558473130E-1,7.277171612E-1,9.691230774E0,-3.472583890E-1,9.724716683E0
2.584034070E-1,7.013961077E-1,9.707980156E0,-2.632105052E-1,9.736843173E0
2.609595000E-1,6.559324861E-1,9.739087105E0,-1.938186288E-1,9.763074860E0
2.635155940E-1,5.985047817E-1,9.758230209E0,-1.507478207E-1,9.777729271E0
2.660716880E-1,5.434698462E-1,9.763015747E0,-1.220339537E-1,9.778891974E0
2.686277820E-1,4.788636267E-1,9.751050949E0,-1.124626622E-1,9.763449843E0
2.711838750E-1,4.597210586E-1,9.729516029E0,-1.004985496E-1,9.740889363E0
2.737399690E-1,4.166502357E-1,9.707980156E0,-6.699903309E-2,9.717147987E0
2.762960630E-1,4.094717801E-1,9.669695854E0,-5.503492057E-2,9.678518166E0
2.788521570E-1,4.118646085E-1,9.672088623E0,-5.264209956E-2,9.680996952E0
2.814082500E-1,4.334000051E-1,9.674481392E0,-7.178468257E-2,9.684450362E0
2.839643440E-1,4.405784607E-1,9.707980156E0,-1.100698411E-1,9.718595755E0
2.865204380E-1,4.549354017E-1,9.710372925E0,-1.339980662E-1,9.721947544E0
2.890765320E-1,4.645066857E-1,9.731908798E0,-1.770688742E-1,9.744596898E0
2.916326250E-1,4.836492836E-1,9.753444672E0,-1.842473447E-1,9.767166768E0
2.941887190E-1,5.315057039E-1,9.763015747E0,-2.057827413E-1,9.779638098E0
2.967448130E-1,5.769693851E-1,9.779765129E0,-2.153540403E-1,9.799136544E0
2.993009070E-1,6.176473498E-1,9.770194054E0,-2.321037948E-1,9.792448737E0
3.018570000E-1,6.822535396E-1,9.758230209E0,-2.560320199E-1,9.785401326E0
3.044130940E-1,7.444669604E-1,9.760622978E0,-2.679961324E-1,9.792640803E0
3.069691880E-1,7.731808424E-1,9.746265411E0,-2.464607358E-1,9.779991870E0
3.095252820E-1,7.612167001E-1,9.743872643E0,-1.579262912E-1,9.774837372E0
3.120813750E-1,7.133602500E-1,9.727123260E0,-7.178468257E-2,9.753510282E0
3.146374690E-1,6.272186637E-1,9.739087105E0,7.178467698E-3,9.759265977E0
3.171935630E-1,5.291129351E-1,9.770194054E0,2.871387079E-2,9.784552970E0
3.197496570E-1,4.405784607E-1,9.777372360E0,4.785645287E-3,9.787294956E0
3.223057500E-1,3.233301640E-1,9.770194054E0,-5.503492057E-2,9.775697575E0
3.248618440E-1,2.656033039E-1,9.739087105E0,-1.435693651E-1,9.743765951E0
3.274179380E-1,2.464607358E-1,9.693623543E0,-2.440679073E-1,9.699827289E0
3.299740320E-1,2.751746178E-1,9.669695854E0,-3.161516786E-1,9.678775277E0
3.325301250E-1,3.376871049E-1,9.645767212E0,-3.735794425E-1,9.658903628E0
3.350862190E-1,4.070789516E-1,9.664909363E0,-3.687937856E-1,9.680505933E0
3.376423130E-1,5.171487927E-1,9.715159416E0,-3.496512175E-1,9.735194982E0
3.401984070E-1,6.272186637E-1,9.758230209E0,-3.305086195E-1,9.783950941E0
3.427545000E-1,7.229315639E-1,9.791728973E0,-2.850449979E-1,9.822516836E0
3.453105940E-1,8.042874932E-1,9.813264847E0,-2.368894368E-1,9.849018323E0
3.478666880E-1,8.763712645E-1,9.810872078E0,-2.057827413E-1,9.852085265E0
3.504227820E-1,9.002995491E-1,9.786943436E0,-1.579262912E-1,9.829534160E0
3.529788750E-1,8.907282352E-1,9.751050949E0,-1.435693651E-1,9.792701546E0
3.555349690E-1,9.098708034E-1,9.712766647E0,-1.196411327E-1,9.756024540E0
3.580910630E-1,9.122636318E-1,9.684052467E0,-1.004985496E-1,9.727445558E0
3.606471570E-1,9.314061999E-1,9.700801849E0,-1.220339537E-1,9.746177010E0
3.632032500E-1,9.361918569E-1,9.705587387E0,-1.603191197E-1,9.751952827E0
3.657593440E-1,9.553344250E-1,9.731908798E0,-2.129612118E-1,9.781005327E0
3.683154380E-1,9.505487680E-1,9.743872643E0,-2.512463629E-1,9.793350896E0
3.708715320E-1,9.696913958E-1,9.746265411E0,-2.584248483E-1,9.797794358E0
3.734276250E-1,9.720842242E-1,9.743872643E0,-2.512463629E-1,9.795464591E0
3.759837190E-1,9.864411354E-1,9.751050949E0,-2.344966233E-1,9.803624299E0
3.785398130E-1,9.888339639E-1,9.741479874E0,-2.177468538E-1,9.793959181E0
3.810959070E-1,1.024726272E0,9.758230209E0,-2.129612118E-1,9.814197534E0
3.836520000E-1,1.048654556E0,9.755837440E0,-1.986042857E-1,9.814045252E0
3.862080940E-1,1.041476011E0,9.760622978E0,-1.627119333E-1,9.817377877E0
3.887641880E-1,1.017547846E0,9.758230209E0,-1.076770201E-1,9.811730468E0
3.913202820E-1,9.768698215E-1,9.746265411E0,-5.264209956E-2,9.795240442E0
3.938763750E-1,9.194421172E-1,9.758230209E0,2.871387079E-2,9.801492494E0
3.964324690E-1,8.739784956E-1,9.774979591E0,1.124626622E-1,9.814617276E0
3.989885630E-1,8.306085467E-1,9.801301003E0,1.483550072E-1,9.837551581E0
4.015446570E-1,7.564310431E-1,9.806086540E0,1.363908947E-1,9.836164071E0
4.041007500E-1,6.702894568E-1,9.830313683E0,9.571290761E-2,9.853604214E0
4.066568440E-1,5.650052428E-1,9.815657616E0,2.392822644E-3,9.831905770E0
4.092129380E-1,5.075774789E-1,9.818050385E0,-1.148554832E-1,9.831832995E0
4.117690320E-1,4.429712892E-1,9.801301003E0,-2.057827413E-1,9.813463784E0
4.143251250E-1,3.903291821E-1,9.755837440E0,-2.946162820E-1,9.768086803E0
4.168812190E-1,3.592225015E-1,9.753444672E0,-3.352942765E-1,9.765815174E0
4.194373130E-1,3.233301640E-1,9.755837440E0,-3.233301640E-1,9.766547443E0
4.219934070E-1,3.376871049E-1,9.767801285E0,-2.826521695E-1,9.777722985E0
4.245495000E-1,3.329014480E-1,9.765408516E0,-2.273181528E-1,9.773725001E0
4.271055940E-1,3.544368446E-1,9.779765129E0,-1.818545163E-1,9.787875281E0
4.296616880E-1,3.831507266E-1,9.801301003E0,-1.316052526E-1,9.809670013E0
4.322177820E-1,3.999004960E-1,9.791728973E0,-8.853443712E-2,9.800291579E0
4.347738750E-1,4.405784607E-1,9.770194054E0,-7.657032460E-2,9.780422498E0
4.373299690E-1,5.003990531E-1,9.727123260E0,-8.374879509E-2,9.740345990E0
4.398860630E-1,5.817549825E-1,9.715159416E0,-1.268195957E-1,9.733388133E0
4.424421570E-1,6.631109715E-1,9.739087105E0,-1.531406492E-1,9.762836978E0
4.449982500E-1,7.301099896E-1,9.772586823E0,-1.698904037E-1,9.801294636E0
4.475543440E-1,7.636095285E-1,9.791728973E0,-2.009970993E-1,9.823515442E0
4.501104380E-1,7.779664397E-1,9.801301003E0,-2.392822653E-1,9.835038847E0
4.526665320E-1,7.660023570E-1,9.803693771E0,-2.751746178E-1,9.837423049E0
4.552226250E-1,7.516453862E-1,9.813264847E0,-3.137588799E-1,9.847008803E0
4.577787190E-1,7.037889361E-1,9.779765129E0,-3.472583890E-1,9.811203455E0
4.603348130E-1,6.391827464E-1,9.784550667E0,-3.759722710E-1,9.812611349E0
4.628909070E-1,5.841478109E-1,9.760622978E0,-4.094717801E-1,9.786657076E0
4.654470000E-1,5.267201066E-1,9.748658180E0,-4.166502357E-1,9.771763802E0
4.680030940E-1,4.860421121E-1,9.734301567E0,-4.022932947E-1,9.754727255E0
4.705591880E-1,4.692923427E-1,9.736694336E0,-3.831507266E-1,9.755524403E0
4.731152820E-1,4.286143482E-1,9.741479874E0,-3.376871049E-1,9.756750123E0
4.756713750E-1,4.214358926E-1,9.722337723E0,-3.089732230E-1,9.736371165E0
4.782274690E-1,4.334000051E-1,9.707980156E0,-2.703889608E-1,9.721410621E0
4.807835630E-1,4.357928336E-1,9.691230774E0,-2.344966233E-1,9.703857891E0
4.833396570E-1,4.764707983E-1,9.696016312E0,-1.890329868E-1,9.709556643E0
4.858957500E-1,5.434698462E-1,9.703194618E0,-1.459621787E-1,9.719498456E0
4.884518440E-1,5.913262963E-1,9.696016312E0,-1.028913707E-1,9.714575942E0
4.910079380E-1,6.798607111E-1,9.707980156E0,-6.699903309E-2,9.731987370E0
4.935640320E-1,7.564310431E-1,9.719944954E0,-4.067798331E-2,9.749419087E0
4.961201250E-1,8.401798606E-1,9.734301567E0,-3.589234129E-2,9.770558708E0
4.986762190E-1,9.122636318E-1,9.760622978E0,-3.349951655E-2,9.803219271E0
5.012323130E-1,9.457631707E-1,9.770194054E0,-3.110669367E-2,9.815911952E0
5.037884070E-1,9.361918569E-1,9.784550667E0,-4.067798331E-2,9.829320508E0
5.063445000E-1,8.859425783E-1,9.770194054E0,-3.589234129E-2,9.810345272E0
5.089005940E-1,8.042874932E-1,9.779765129E0,-4.067798331E-2,9.812865996E0
5.114566880E-1,7.229315639E-1,9.758230209E0,-7.417750359E-2,9.785253659E0
5.139936150E-1,6.152545214E-1,9.741479874E0,-1.124626622E-1,9.761537589E0
5.165054900E-1,5.338985324E-1,9.688838005E0,-1.627119333E-1,9.704901066E0
5.190115320E-1,4.884349108E-1,9.676874161E0,-1.890329868E-1,9.691036872E0
5.215175730E-1,4.740779996E-1,9.686445236E0,-2.273181528E-1,9.700703315E0
5.240236150E-1,4.812564552E-1,9.736694336E0,-2.608176768E-1,9.752069023E0
5.265296570E-1,4.956133962E-1,9.765408516E0,-2.727817893E-1,9.781781332E0
5.290356980E-1,5.099703074E-1,9.786943436E0,-2.416750938E-1,9.803200415E0
5.315416880E-1,5.219344497E-1,9.806086540E0,-1.794617027E-1,9.821606554E0
5.340477290E-1,5.434698462E-1,9.813264847E0,-1.172483116E-1,9.829001658E0
5.365537710E-1,5.721837282E-1,9.782157898E0,-3.349951655E-2,9.798935125E0
5.390598130E-1,6.128616929E-1,9.758230209E0,2.153540403E-2,9.777480250E0
5.415658540E-1,6.774678826E-1,9.741479874E0,5.024927482E-2,9.765137882E0
5.440718960E-1,7.348956466E-1,9.715159416E0,5.503492057E-2,9.743070509E0
5.465779380E-1,7.899305820E-1,9.722337723E0,3.349951655E-2,9.754433010E0
5.490839790E-1,8.572286963E-1,9.719944954E0,-2.392822644E-3,9.757672708E0
5.515900210E-1,9.314061999E-1,9.729516029E0,-9.571290575E-3,9.774000782E0
5.540960630E-1,9.314061999E-1,9.741479874E0,4.785645287E-3,9.785906731E0
5.566021040E-1,9.146564603E-1,9.767801285E0,1.914258115E-2,9.810550689E0
5.591081460E-1,8.524430394E-1,9.767801285E0,5.742774159E-2,9.805095564E0
5.616141880E-1,7.875377536E-1,9.782157898E0,1.268195957E-1,9.814627454E0
5.641202290E-1,7.468597889E-1,9.813264847E0,1.459621787E-1,9.842726830E0
5.666262710E-1,7.181459069E-1,9.798908234E0,1.028913707E-1,9.825727594E0
5.691323130E-1,6.822535396E-1,9.779765129E0,4.785645381E-2,9.803650652E0
5.716383540E-1,6.439684033E-1,9.772586823E0,4.785645287E-3,9.793782283E0
5.741443960E-1,6.559324861E-1,9.743872643E0,-2.153540403E-2,9.765949277E0
5.766504380E-1,6.631109715E-1,9.739087105E0,-4.067798331E-2,9.761720570E0
5.791564790E-1,7.181459069E-1,9.731908798E0,-4.785645381E-2,9.758487211E0
5.816625210E-1,7.683951855E-1,9.712766647E0,-5.503492057E-2,9.743269264E0
5.841685630E-1,7.636095285E-1,9.712766647E0,-5.982056633E-2,9.742921223E0
5.866745520E-1,7.612167001E-1,9.700801849E0,-3.828516230E-2,9.730697464E0
5.891805940E-1,7.468597889E-1,9.724730492E0,-4.067798331E-2,9.753452588E0
5.916866360E-1,7.301099896E-1,9.748658180E0,-5.024927482E-2,9.776089295E0
5.941926770E-1,6.990033388E-1,9.772586823E0,-4.307080805E-2,9.797648390E0
5.966987190E-1,7.061817646E-1,9.774979591E0,-3.589234129E-2,9.800520749E0
5.992047610E-1,7.157530785E-1,9.772586823E0,-4.067798331E-2,9.798847400E0
6.017108020E-1,6.870391965E-1,9.755837440E0,-5.982056633E-2,9.780182285E0
6.042168440E-1,6.415755749E-1,9.719944954E0,-8.374879509E-2,9.741455897E0
6.067228860E-1,6.176473498E-1,9.722337723E0,-1.483550072E-1,9.743066676E0
6.092289270E-1,5.985047817E-1,9.727123260E0,-1.914258152E-1,9.747398563E0
6.117349690E-1,5.841478109E-1,9.736694336E0,-2.536391914E-1,9.757498557E0
6.142410110E-1,5.554339290E-1,9.753444672E0,-2.775674164E-1,9.773189525E0
6.167470520E-1,5.506483316E-1,9.746265411E0,-3.329014480E-1,9.767483116E0
6.192530940E-1,5.458626747E-1,9.743872643E0,-3.640081584E-1,9.765936825E0
6.217591360E-1,5.602195859E-1,9.755837440E0,-3.879363835E-1,9.779606576E0
6.242651770E-1,5.889334679E-1,9.743872643E0,-4.046861231E-1,9.770039281E0
6.267712190E-1,6.176473498E-1,9.736694336E0,-4.070789516E-1,9.764753869E0
6.292772610E-1,6.798607111E-1,9.717552185E0,-4.094717801E-1,9.749907599E0
6.317833020E-1,7.420741320E-1,9.727123260E0,-4.046861231E-1,9.763778562E0
6.342892920E-1,7.755736113E-1,9.753444672E0,-4.094717801E-1,9.792796563E0
6.367953340E-1,8.018946648E-1,9.774979591E0,-3.999004960E-1,9.815965641E0
6.393013750E-1,8.138588071E-1,9.784550667E0,-3.927220106E-1,9.826190945E0
6.418074170E-1,8.186444640E-1,9.798908234E0,-3.831507266E-1,9.840507396E0
6.443134590E-1,8.042874932E-1,9.784550667E0,-3.496512175E-1,9.823775552E0
6.468195000E-1,7.923234105E-1,9.770194054E0,-3.544368446E-1,9.808674411E0
6.493255420E-1,7.731808424E-1,9.753444672E0,-3.472583890E-1,9.790203265E0
6.518315840E-1,7.540382147E-1,9.729516029E0,-3.711866140E-1,9.765748066E0
6.543376250E-1,7.612167001E-1,9.729516029E0,-3.855435550E-1,9.766861157E0
6.568436670E-1,7.564310431E-1,9.729516029E0,-4.046861231E-1,9.767263739E0
6.593497090E-1,7.420741320E-1,9.736694336E0,-3.831507266E-1,9.772445707E0
6.618557500E-1,7.348956466E-1,9.770194054E0,-3.329014480E-1,9.803447701E0
6.643617920E-1,7.372884750E-1,9.798908234E0,-2.488535494E-1,9.829757116E0
6.668678340E-1,7.540382147E-1,9.810872078E0,-1.698904037E-1,9.841272647E0
6.693738750E-1,7.683951855E-1,9.810872078E0,-1.028913707E-1,9.841454604E0
6.718799170E-1,7.803592682E-1,9.803693771E0,-5.742774159E-2,9.834870111E0
6.743859590E-1,7.683951855E-1,9.789336205E0,-1.674975827E-2,9.819461036E0
6.768920000E-1,8.090731502E-1,9.777372360E0,-2.153540403E-2,9.810814105E0
6.793980420E-1,8.162516356E-1,9.760622978E0,-2.392822690E-2,9.794723080E0
6.819040320E-1,8.042874932E-1,9.734301567E0,-4.785645381E-2,9.767589038E0
6.844100730E-1,7.731808424E-1,9.729516029E0,-6.699903309E-2,9.760419031E0
6.869161150E-1,7.683951855E-1,9.729516029E0,-5.503492057E-2,9.759966300E0
6.894221570E-1,7.564310431E-1,9.727123260E0,-4.546362907E-2,9.756596834E0
6.919281980E-1,7.372884750E-1,9.719944954E0,-4.785645381E-2,9.747985148E0
6.944342400E-1,7.348956466E-1,9.748658180E0,-5.024927482E-2,9.776447868E0
6.969402820E-1,7.277171612E-1,9.743872643E0,-7.417750359E-2,9.771291043E0
6.994463230E-1,7.205387354E-1,9.753444672E0,-1.052841991E-1,9.780590156E0
7.019523650E-1,7.157530785E-1,9.763015747E0,-9.332008660E-2,9.789662281E0
7.044584070E-1,7.061817646E-1,9.755837440E0,-9.092725813E-2,9.781785349E0
7.069644480E-1,7.013961077E-1,9.772586823E0,-1.100698411E-1,9.798342976E0
7.094704900E-1,6.894320250E-1,9.767801285E0,-1.268195957E-1,9.792923040E0
7.119765320E-1,6.583253145E-1,9.746265411E0,-1.316052526E-1,9.769360349E0
7.144825730E-1,6.415755749E-1,9.751050949E0,-1.459621787E-1,9.773224585E0
7.169886150E-1,6.391827464E-1,9.763015747E0,-1.627119333E-1,9.785269860E0
7.194946570E-1,6.176473498E-1,9.760622978E0,-1.722832322E-1,9.781662981E0
7.220006980E-1,6.008976102E-1,9.739087105E0,-1.962114573E-1,9.759579628E0
7.245067400E-1,5.745765567E-1,9.722337723E0,-2.129612118E-1,9.741629304E0
7.270127820E-1,5.602195859E-1,9.705587387E0,-2.368894368E-1,9.724627968E0
7.295188230E-1,5.578267574E-1,9.698409081E0,-2.344966233E-1,9.717268034E0
7.320248130E-1,5.482555032E-1,9.710372925E0,-2.297109663E-1,9.728550435E0
7.345308540E-1,5.099703074E-1,9.710372925E0,-2.273181528E-1,9.726411753E0
7.370368960E-1,4.764707983E-1,9.729516029E0,-2.368894368E-1,9.744055788E0
7.395429380E-1,4.477569461E-1,9.722337723E0,-2.249253243E-1,9.735241573E0
7.420489790E-1,4.357928336E-1,9.712766647E0,-1.914258152E-1,9.724422614E0
7.445550210E-1,4.429712892E-1,9.748658180E0,-1.674975902E-1,9.760154472E0
7.470610630E-1,4.573282301E-1,9.782157898E0,-1.603191197E-1,9.794154607E0
7.495671040E-1,4.716851711E-1,9.798908234E0,-1.507478207E-1,9.811412456E0
7.520731460E-1,4.788636267E-1,9.789336205E0,-1.292124242E-1,9.801893161E0
7.545791880E-1,4.860421121E-1,9.779765129E0,-1.148554832E-1,9.792509111E0
7.570852290E-1,4.956133962E-1,9.767801285E0,-7.896314561E-2,9.780685546E0
7.595912710E-1,4.788636267E-1,9.758230209E0,-6.221338734E-2,9.770170812E0
7.620973130E-1,4.812564552E-1,9.758230209E0,-4.546362907E-2,9.770196085E0
7.646033540E-1,4.692923427E-1,9.772586823E0,-3.589234129E-2,9.783914184E0
7.671093960E-1,4.094717801E-1,9.765408516E0,-2.632104978E-2,9.774024934E0
7.696154380E-1,3.568296731E-1,9.758230209E0,-2.392822644E-3,9.764752427E0
7.721214790E-1,3.281157911E-1,9.739087105E0,6.221338734E-2,9.744811343E0
7.746275210E-1,3.161516786E-1,9.722337723E0,1.004985496E-1,9.727995818E0
7.771335630E-1,3.281157911E-1,9.715159416E0,1.172483116E-1,9.721405743E0
7.796396040E-1,3.496512175E-1,9.693623543E0,1.004985496E-1,9.700448099E0
7.821456460E-1,3.711866140E-1,9.700801849E0,9.571290761E-2,9.708372520E0
7.846516880E-1,4.022932947E-1,9.712766647E0,7.178468257E-2,9.721359415E0
7.871576770E-1,4.286143482E-1,9.700801849E0,7.896314561E-2,9.710587107E0
7.896637190E-1,4.764707983E-1,9.691230774E0,8.853443712E-2,9.703340491E0
7.921697610E-1,5.123631358E-1,9.698409081E0,9.810572863E-2,9.712429120E0
7.946758020E-1,5.362913609E-1,9.717552185E0,9.092725813E-2,9.732764081E0
7.971818440E-1,5.338985324E-1,9.741479874E0,9.810572863E-2,9.756592771E0
7.996878860E-1,5.338985324E-1,9.755837440E0,1.100698411E-1,9.771055582E0
8.021939270E-1,5.386841893E-1,9.755837440E0,1.555334777E-1,9.771936117E0
8.046999690E-1,5.219344497E-1,9.763015747E0,1.842473447E-1,9.778693120E0
8.072060110E-1,5.123631358E-1,9.743872643E0,2.105683982E-1,9.759605991E0
8.097120520E-1,4.764707983E-1,9.717552185E0,2.249253243E-1,9.731825949E0
8.122180940E-1,4.405784607E-1,9.696016312E0,2.344966233E-1,9.708853195E0
8.147241360E-1,3.831507266E-1,9.681659698E0,2.153540403E-1,9.691631254E0
8.172301770E-1,3.448655605E-1,9.681659698E0,1.986042857E-1,9.689835418E0
8.197362190E-1,3.424727321E-1,9.703194618E0,1.555334777E-1,9.710482173E0
8.222422610E-1,3.592225015E-1,9.724730492E0,9.571290761E-2,9.731833584E0
8.247483020E-1,3.879363835E-1,9.715159416E0,1.435693540E-2,9.722912282E0
8.272543440E-1,4.597210586E-1,9.715159416E0,-5.503492057E-2,9.726186034E0
8.297603340E-1,5.195416212E-1,9.707980156E0,-8.853443712E-2,9.722275482E0
8.322663750E-1,6.367899179E-1,9.703194618E0,-9.810572863E-2,9.724562300E0
8.347724170E-1,7.420741320E-1,9.700801849E0,-7.178468257E-2,9.729408182E0
8.372784590E-1,8.377870321E-1,9.722337723E0,-2.871387079E-2,9.758409829E0
8.397845000E-1,8.931210637E-1,9.758230209E0,-9.571290575E-3,9.799021056E0
8.422905420E-1,9.170492887E-1,9.786943436E0,-1.196411345E-2,9.829821176E0
8.447965840E-1,9.074779749E-1,9.801301003E0,-1.914258115E-2,9.843240526E0
8.473026250E-1,8.715856671E-1,9.813264847E0,-1.196411345E-2,9.851901932E0
8.498086670E-1,8.186444640E-1,9.806086540E0,-7.178467698E-3,9.840201396E0
8.523147090E-1,7.564310431E-1,9.820742607E0,-2.632104978E-2,9.849866297E0
8.548207500E-1,7.037889361E-1,9.801301003E0,-4.307080805E-2,9.826630923E0
8.573267920E-1,6.200401783E-1,9.784550667E0,-9.571290761E-2,9.804643927E0
8.598328340E-1,5.578267574E-1,9.760622978E0,-1.507478207E-1,9.777712233E0
8.623388750E-1,5.171487927E-1,9.731908798E0,-2.153540403E-1,9.748018727E0
8.648449170E-1,5.003990531E-1,9.731908798E0,-2.922234535E-1,9.749145738E0
8.673509590E-1,5.315057039E-1,9.755837440E0,-3.640081584E-1,9.777083636E0
8.698570000E-1,6.176473498E-1,9.794121742E0,-3.951148391E-1,9.821528633E0
8.723630420E-1,7.229315639E-1,9.818050385E0,-3.855435550E-1,9.852176776E0
8.748690840E-1,8.186444640E-1,9.832706451E0,-3.448655605E-1,9.872751753E0
8.773751250E-1,8.907282352E-1,9.844670296E0,-2.946162820E-1,9.889273420E0
8.798811670E-1,9.433703423E-1,9.839884758E0,-2.368894368E-1,9.887840829E0
8.823872090E-1,9.792626500E-1,9.827920914E0,-1.842473447E-1,9.878306125E0
8.848932500E-1,9.553344250E-1,9.806086540E0,-1.435693651E-1,9.853558203E0
8.873992400E-1,9.002995491E-1,9.777372360E0,-7.657032460E-2,9.819033179E0
8.899052820E-1,8.306085467E-1,9.743872643E0,-1.674975827E-2,9.779225183E0
8.924113230E-1,7.229315639E-1,9.719944954E0,-2.153540403E-2,9.746816082E0
8.949173650E-1,5.841478109E-1,9.705587387E0,-5.742774159E-2,9.723320068E0
8.974234070E-1,4.908277392E-1,9.698409081E0,-9.332008660E-2,9.711269701E0
8.999294480E-1,4.166502357E-1,9.717552185E0,-1.507478207E-1,9.727648369E0
9.024354900E-1,3.640081584E-1,9.712766647E0,-2.201396823E-1,9.722077935E0
9.049415320E-1,3.017947674E-1,9.736694336E0,-2.970091105E-1,9.745897141E0
9.074475730E-1,2.703889608E-1,9.724730492E0,-3.448655605E-1,9.734599405E0
9.099536150E-1,2.368894368E-1,9.736694336E0,-3.496512175E-1,9.745849843E0
9.124596570E-1,2.392822653E-1,9.765408516E0,-3.376871049E-1,9.774174751E0
9.149656980E-1,2.344966233E-1,9.779765129E0,-2.775674164E-1,9.786513083E0
9.174717400E-1,2.225325108E-1,9.770194054E0,-2.273181528E-1,9.775371405E0
9.199777820E-1,2.033899277E-1,9.777372360E0,-1.579262912E-1,9.780762672E0
9.224838230E-1,2.009970993E-1,9.760622978E0,-1.100698411E-1,9.763312764E0
9.249898650E-1,2.081755698E-1,9.763015747E0,-9.092725813E-2,9.765658263E0
9.274959070E-1,2.297109663E-1,9.767801285E0,-9.571290761E-2,9.770970782E0
9.300019480E-1,2.584248483E-1,9.770194054E0,-1.363908947E-1,9.774562789E0
9.325079900E-1,3.305086195E-1,9.753444672E0,-1.579262912E-1,9.760320672E0
9.350139790E-1,3.544368446E-1,9.751050949E0,-1.579262912E-1,9.758768406E0
9.375200210E-1,3.927220106E-1,9.727123260E0,-1.483550072E-1,9.736178239E0
9.400260630E-1,4.310071766E-1,9.715159416E0,-1.363908947E-1,9.725671809E0
9.425321040E-1,5.147559643E-1,9.722337723E0,-1.363908947E-1,9.736910546E0
9.450381460E-1,5.745765567E-1,9.741479874E0,-1.531406492E-1,9.759611693E0
9.475441880E-1,6.200401783E-1,9.751050949E0,-1.698904037E-1,9.772221200E0
9.500502290E-1,6.750751138E-1,9.767801285E0,-1.770688742E-1,9.792702474E0
9.525562710E-1,7.325028181E-1,9.791728973E0,-1.435693651E-1,9.820138941E0
9.550623130E-1,7.755736113E-1,9.796515465E0,-1.316052526E-1,9.828049126E0
9.575683540E-1,7.971090674E-1,9.786943436E0,-9.092725813E-2,9.819771507E0
9.600743960E-1,7.947162390E-1,9.770194054E0,-7.178468257E-2,9.802725069E0
9.625804380E-1,7.995018363E-1,9.743872643E0,-7.417750359E-2,9.776899282E0
9.650864790E-1,7.731808424E-1,9.748658180E0,-8.614161611E-2,9.779650572E0
9.675925210E-1,7.516453862E-1,9.719944954E0,-1.100698411E-1,9.749585430E0
9.700985630E-1,7.085745931E-1,9.719944954E0,-1.292124242E-1,9.746594467E0
9.726046040E-1,6.846463680E-1,9.717552185E0,-1.148554832E-1,9.742317635E0
9.751106460E-1,6.320042610E-1,9.719944954E0,-8.135596663E-2,9.740809930E0
9.776166880E-1,5.482555032E-1,9.712766647E0,-2.392822690E-2,9.728257429E0
9.801227290E-1,4.836492836E-1,9.715159416E0,4.785645287E-3,9.727191887E0
9.826287710E-1,3.927220106E-1,9.712766647E0,6.460621208E-2,9.720917677E0
9.851348130E-1,3.448655605E-1,9.729516029E0,1.244267747E-1,9.736421131E0
9.876408020E-1,3.161516786E-1,9.727123260E0,1.387837082E-1,9.733249186E0
9.901468440E-1,3.017947674E-1,9.741479874E0,1.172483116E-1,9.746858847E0
9.926528860E-1,3.233301640E-1,9.729516029E0,7.417750359E-2,9.735169586E0
9.951589270E-1,3.472583890E-1,9.722337723E0,-4.785645287E-3,9.728538538E0
9.976649690E-1,3.855435550E-1,9.734301567E0,-8.374879509E-2,9.742293605E0
1.000171011E0,4.022932947E-1,9.727123260E0,-1.794617027E-1,9.737092652E0
1.002677052E0,4.166502357E-1,9.710372925E0,-2.536391914E-1,9.722616551E0
1.005183094E0,4.381856322E-1,9.698409081E0,-2.826521695E-1,9.712416671E0
1.007689136E0,4.214358926E-1,9.734301567E0,-2.512463629E-1,9.746658912E0
1.010195177E0,3.903291821E-1,9.753444672E0,-1.698904037E-1,9.762730283E0
1.012701219E0,3.305086195E-1,9.782157898E0,-7.896314561E-2,9.788058248E0
1.015207261E0,2.922234535E-1,9.798908234E0,-2.392822690E-2,9.803293818E0
1.017713302E0,2.656033039E-1,9.796515465E0,-4.307080805E-2,9.800209970E0
1.020219344E0,2.512463629E-1,9.767801285E0,-8.853443712E-2,9.771433110E0
1.022725386E0,2.560320199E-1,9.719944954E0,-1.674975902E-1,9.724759007E0
1.025231427E0,2.922234535E-1,9.691230774E0,-2.826521695E-1,9.699754673E0
1.027737469E0,3.711866140E-1,9.684052467E0,-3.783650696E-1,9.698546892E0
1.030243511E0,4.573282301E-1,9.703194618E0,-4.525425732E-1,9.724501514E0
1.032749500E0,5.458626747E-1,9.739087105E0,-4.573282301E-1,9.765087445E0
1.035255542E0,6.248258352E-1,9.758230209E0,-4.046861231E-1,9.786584440E0
1.037761584E0,6.918248534E-1,9.770194054E0,-3.352942765E-1,9.800394672E0
1.040267625E0,7.061817646E-1,9.770194054E0,-2.368894368E-1,9.798545868E0
1.042773667E0,7.301099896E-1,9.782157898E0,-1.722832322E-1,9.810879433E0
1.045279709E0,7.205387354E-1,9.806086540E0,-1.627119333E-1,9.833869253E0
1.047785750E0,7.181459069E-1,9.803693771E0,-2.057827413E-1,9.832115319E0
1.050291792E0,7.253243923E-1,9.825528145E0,-2.874378264E-1,9.856455717E0
1.052797834E0,7.301099896E-1,9.832706451E0,-3.616153300E-1,9.866404735E0
1.055303875E0,7.205387354E-1,9.808479309E0,-4.310071766E-1,9.844349121E0
1.057809917E0,7.348956466E-1,9.801301003E0,-4.956133962E-1,9.841301011E0
1.060315959E0,7.085745931E-1,9.794121742E0,-5.602195859E-1,9.835687299E0
1.062822000E0,6.631109715E-1,9.772586823E0,-6.080760360E-1,9.813914908E0
1.065328042E0,6.655037999E-1,9.763015747E0,-6.008976102E-1,9.804103719E0
1.067834084E0,6.583253145E-1,9.751050949E0,-5.650052428E-1,9.789566781E0
1.070340125E0,6.726822853E-1,9.760622978E0,-5.003990531E-1,9.796563765E0
1.072846167E0,6.822535396E-1,9.755837440E0,-4.381856322E-1,9.789476018E0
1.075352209E0,7.109674215E-1,9.739087105E0,-3.711866140E-1,9.772055659E0
1.077858250E0,7.229315639E-1,9.729516029E0,-3.257229924E-1,9.761772773E0
1.080364240E0,7.372884750E-1,9.724730492E0,-3.089732230E-1,9.757532571E0
1.082870282E0,7.468597889E-1,9.717552185E0,-3.113660514E-1,9.751182945E0
1.085376323E0,7.851449251E-1,9.731908798E0,-3.472583890E-1,9.769702646E0
1.087882365E0,8.186444640E-1,9.727123260E0,-3.951148391E-1,9.769504666E0
1.090388407E0,8.234301209E-1,9.741479874E0,-4.334000051E-1,9.785821522E0
1.092894448E0,8.452646136E-1,9.755837440E0,-4.668995142E-1,9.803511187E0
1.095400490E0,8.668000102E-1,9.751050949E0,-4.501497746E-1,9.799845493E0
1.097906532E0,8.476574421E-1,9.765408516E0,-4.142574072E-1,9.810878443E0
1.100412573E0,8.620143533E-1,9.763015747E0,-3.448655605E-1,9.807062632E0
1.102918615E0,8.691928387E-1,9.765408516E0,-2.536391914E-1,9.807294862E0
1.105424657E0,8.644071817E-1,9.779765129E0,-1.627119333E-1,9.819240344E0
1.107930698E0,8.572286963E-1,9.777372360E0,-7.417750359E-2,9.815159378E0
1.110436740E0,8.452646136E-1,9.794121742E0,-1.435693540E-2,9.830539105E0
1.112942782E0,8.282157183E-1,9.765408516E0,2.153540403E-2,9.800490219E0
1.115448823E0,8.138588071E-1,9.751050949E0,2.153540403E-2,9.784979537E0
1.117954865E0,8.042874932E-1,9.734301567E0,0.000000000E0,9.767471800E0
1.120460907E0,7.755736113E-1,9.722337723E0,-2.632104978E-2,9.753258841E0
1.122966948E0,7.444669604E-1,9.700801849E0,-4.785645381E-2,9.729443860E0
1.125472990E0,7.205387354E-1,9.679266930E0,-5.503492057E-2,9.706204882E0
1.127979032E0,7.013961077E-1,9.681659698E0,-4.307080805E-2,9.707128623E0
1.130485021E0,6.798607111E-1,9.681659698E0,-1.435693540E-2,9.705511384E0
1.132991063E0,6.846463680E-1,9.681659698E0,1.674975827E-2,9.705851623E0
1.135497104E0,6.678966284E-1,9.679266930E0,5.503492057E-2,9.702439026E0
1.138003146E0,6.726822853E-1,9.693623543E0,1.100698411E-1,9.717559067E0
1.140509188E0,6.631109715E-1,9.684052467E0,1.483550072E-1,9.707862667E0
1.143015229E0,6.798607111E-1,9.672088623E0,1.914258152E-1,9.697842686E0
1.145521271E0,6.583253145E-1,9.705587387E0,2.297109663E-1,9.730600489E0
1.148027313E0,6.559324861E-1,9.686445236E0,2.416750938E-1,9.711636092E0
1.150533354E0,6.391827464E-1,9.691230774E0,2.273181528E-1,9.714946322E0
1.153039396E0,6.176473498E-1,9.693623543E0,2.009970993E-1,9.715360285E0
1.155545438E0,5.961119533E-1,9.676874161E0,1.603191197E-1,9.696542951E0
1.158051479E0,6.008976102E-1,9.688838005E0,9.332008660E-2,9.707902372E0
1.160557521E0,6.104688644E-1,9.712766647E0,3.110669367E-2,9.731982111E0
1.163063563E0,6.487540603E-1,9.722337723E0,-3.349951655E-2,9.744016361E0
1.165569604E0,6.894320250E-1,9.734301567E0,-9.810572863E-2,9.759178667E0
1.168075646E0,7.205387354E-1,9.758230209E0,-1.579262912E-1,9.786070386E0
1.170581688E0,7.444669604E-1,9.777372360E0,-2.225325108E-1,9.808198716E0
1.173087729E0,7.779664397E-1,9.765408516E0,-2.464607358E-1,9.799447850E0
1.175593771E0,7.827520967E-1,9.743872643E0,-2.416750938E-1,9.778249423E0
1.178099813E0,7.492526174E-1,9.739087105E0,-2.057827413E-1,9.770032940E0
1.180605802E0,7.037889361E-1,9.724730492E0,-1.459621787E-1,9.751256686E0
1.183111844E0,6.702894568E-1,9.698409081E0,-9.092725813E-2,9.721969678E0
1.185617886E0,6.224330068E-1,9.669695854E0,-2.632104978E-2,9.689743730E0
1.188123927E0,5.673980713E-1,9.648159981E0,2.392822644E-3,9.664829916E0
1.190629969E0,5.195416212E-1,9.633803368E0,-9.571290575E-3,9.647807131E0
1.193136011E0,4.788636267E-1,9.633803368E0,-4.785645381E-2,9.645816085E0
1.195642052E0,4.334000051E-1,9.617053032E0,-1.435693651E-1,9.627884334E0
1.198148094E0,3.855435550E-1,9.621838570E0,-2.632105052E-1,9.633156340E0
1.200654136E0,3.616153300E-1,9.636196136E0,-3.711866140E-1,9.650120265E0
1.203160177E0,3.472583890E-1,9.633803368E0,-4.621138871E-1,9.651129725E0
1.205666219E0,3.496512175E-1,9.648159981E0,-5.027918816E-1,9.667577083E0
1.208172261E0,3.424727321E-1,9.676874161E0,-5.219344497E-1,9.696989052E0
1.210678302E0,3.687937856E-1,9.674481392E0,-5.099703074E-1,9.694930055E0
1.213184344E0,4.046861231E-1,9.703194618E0,-4.645066857E-1,9.722732287E0
1.215690386E0,4.764707983E-1,9.712766647E0,-4.094717801E-1,9.733063624E0
1.218196427E0,5.530411601E-1,9.715159416E0,-3.592225015E-1,9.737515998E0
1.220702469E0,6.367899179E-1,9.703194618E0,-3.185445070E-1,9.729283519E0
1.223208511E0,7.564310431E-1,9.705587387E0,-2.850449979E-1,9.739192220E0
1.225714552E0,8.306085467E-1,9.696016312E0,-2.946162820E-1,9.735986936E0
1.228220542E0,9.026923180E-1,9.681659698E0,-2.970091105E-1,9.728185974E0
1.230726584E0,9.888339639E-1,9.664909363E0,-2.826521695E-1,9.719473126E0
1.233232625E0,1.048654556E0,9.684052467E0,-2.970091105E-1,9.745191788E0
1.235738667E0,1.103689432E0,9.691230774E0,-2.994019389E-1,9.758469439E0
1.238244709E0,1.168295622E0,9.705587387E0,-3.041875660E-1,9.780381959E0
1.240750750E0,1.213759303E0,9.712766647E0,-2.970091105E-1,9.792816857E0
1.243256792E0,1.228116274E0,9.741479874E0,-2.703889608E-1,9.822311841E0
1.245762834E0,1.228116274E0,9.755837440E0,-2.321037948E-1,9.835573492E0
1.248268875E0,1.223330617E0,9.736694336E0,-2.033899277E-1,9.815351336E0
1.250774917E0,1.182652593E0,9.746265411E0,-1.746760458E-1,9.819310991E0
1.253280959E0,1.146760225E0,9.731908798E0,-1.698904037E-1,9.800712761E0
1.255787000E0,1.118046403E0,9.693623543E0,-2.009970993E-1,9.759957222E0
1.258293042E0,1.115653515E0,9.688838005E0,-2.584248483E-1,9.756282492E0
1.260799084E0,1.137188911E0,9.688838005E0,-3.257229924E-1,9.760782549E0
1.263305125E0,1.177866936E0,9.703194618E0,-4.286143482E-1,9.783816565E0
1.265811167E0,1.225723386E0,9.712766647E0,-5.315057039E-1,9.804220116E0
1.268317209E0,1.283151150E0,9.712766647E0,-6.391827464E-1,9.817986932E0
1.270823250E0,1.357328653E0,9.748658180E0,-7.109674215E-1,9.868340897E0
1.273329292E0,1.429412484E0,9.765408516E0,-7.492526174E-1,9.897868610E0
1.275835334E0,1.465304732E0,9.796515465E0,-7.372884750E-1,9.932896229E0
1.278341323E0,1.546660781E0,9.803693771E0,-7.133602500E-1,9.950550436E0
1.280847365E0,1.594517231E0,9.806086540E0,-6.702894568E-1,9.957464858E0
1.283353407E0,1.611266971E0,9.803693771E0,-6.176473498E-1,9.954400085E0
1.285859448E0,1.639980793E0,9.803693771E0,-5.961119533E-1,9.957775757E0
1.288365490E0,1.659123421E0,9.779765129E0,-5.841478109E-1,9.936685824E0
1.290871532E0,1.668694735E0,9.767801285E0,-5.985047817E-1,9.927370852E0
1.293377573E0,1.714158297E0,9.760622978E0,-6.176473498E-1,9.929228965E0
1.295883615E0,1.718943954E0,9.767801285E0,-6.415755749E-1,9.938628148E0
1.298389657E0,1.692622900E0,9.794121742E0,-6.439684033E-1,9.960144993E0
1.300895698E0,1.666301847E0,9.789336205E0,-6.367899179E-1,9.950535994E0
1.303401740E0,1.608874083E0,9.791728973E0,-6.296114326E-1,9.942979566E0
1.305907782E0,1.556231976E0,9.779765129E0,-6.272186637E-1,9.922654241E0
1.308413823E0,1.482054472E0,9.765408516E0,-6.224330068E-1,9.896823318E0
1.310919865E0,1.390828133E0,9.753444672E0,-6.320042610E-1,9.872361179E0
1.313425907E0,1.302293777E0,9.722337723E0,-6.415755749E-1,9.830129150E0
1.315931948E0,1.225723386E0,9.722337723E0,-6.702894568E-1,9.822196117E0
1.318437990E0,1.175474167E0,9.719944954E0,-6.990033388E-1,9.815685157E0
1.320944032E0,1.139581800E0,9.700801849E0,-7.301099896E-1,9.794756954E0
1.323450073E0,1.125224829E0,9.710372925E0,-7.875377536E-1,9.807022431E0
1.325956115E0,1.120439172E0,9.715159416E0,-8.138588071E-1,9.813361941E0
1.328462157E0,1.101296663E0,9.729516029E0,-8.739784956E-1,9.830573479E0
1.330968198E0,1.053440213E0,9.751050949E0,-8.859425783E-1,9.847721825E0
1.333474188E0,9.984052777E-1,9.767801285E0,-8.835497499E-1,9.858367776E0
1.335980229E0,9.290133715E-1,9.796515465E0,-8.596215248E-1,9.877941600E0
1.338486271E0,8.258228898E-1,9.803693771E0,-8.210372925E-1,9.872613496E0
1.340992313E0,7.396813035E-1,9.784550667E0,-7.540382147E-1,9.841398976E0
1.343498354E0,6.583253145E-1,9.760622978E0,-6.870391965E-1,9.806894310E0
1.346004396E0,5.697908998E-1,9.715159416E0,-6.272186637E-1,9.752045293E0
1.348510438E0,5.195416212E-1,9.664909363E0,-5.673980713E-1,9.695480239E0
1.351016479E0,4.908277392E-1,9.640981674E0,-5.267201066E-1,9.667826725E0
1.353522521E0,4.788636267E-1,9.633803368E0,-5.291129351E-1,9.660198662E0
1.356028563E0,4.836492836E-1,9.643374443E0,-5.051847100E-1,9.668702026E0
1.358534604E0,5.027918816E-1,9.672088623E0,-5.003990531E-1,9.698066674E0
1.361040646E0,5.219344497E-1,9.736694336E0,-4.908277392E-1,9.763019207E0
1.363546688E0,5.673980713E-1,9.767801285E0,-4.764707983E-1,9.795861725E0
1.366052729E0,5.817549825E-1,9.806086540E0,-4.310071766E-1,9.832778818E0
1.368558771E0,5.721837282E-1,9.832706451E0,-3.855435550E-1,9.856883595E0
1.371064813E0,5.482555032E-1,9.849455833E0,-3.496512175E-1,9.870897643E0
1.373570854E0,5.051847100E-1,9.830313683E0,-3.137588799E-1,9.848285299E0
1.376076896E0,4.453641176E-1,9.789336205E0,-3.065803945E-1,9.804256426E0
1.378582886E0,3.879363835E-1,9.743872643E0,-2.727817893E-1,9.755406635E0
1.381088927E0,2.994019389E-1,9.710372925E0,-2.416750938E-1,9.717993142E0
1.383594969E0,2.344966233E-1,9.696016312E0,-1.722832322E-1,9.700381564E0
1.386101011E0,1.818545163E-1,9.700801849E0,-8.614161611E-2,9.702888640E0
1.388607052E0,1.220339537E-1,9.705587387E0,1.914258115E-2,9.706373435E0
1.391113094E0,7.178468257E-2,9.753444672E0,1.100698411E-1,9.754329878E0
1.393619136E0,1.435693540E-2,9.777372360E0,1.435693651E-1,9.778436918E0
1.396125177E0,-5.982056633E-2,9.791728973E0,7.657032460E-2,9.792211078E0
1.398631219E0,-1.387837082E-1,9.774979591E0,-8.853443712E-2,9.776365648E0
1.401137261E0,-1.962114573E-1,9.724730492E0,-3.137588799E-1,9.731768940E0
1.403643302E0,-2.201396823E-1,9.664909363E0,-5.554339290E-1,9.683358990E0
1.406149344E0,-1.938186288E-1,9.585947037E0,-7.731808424E-1,9.619030869E0
1.408655386E0,-1.363908947E-1,9.552447319E0,-9.146564603E-1,9.597106267E0
1.411161427E0,-3.110669367E-2,9.530911446E0,-9.457631707E-1,9.577771588E0
1.413667469E0,9.810572863E-2,9.547661781E0,-8.596215248E-1,9.586783579E0
1.416173511E0,2.536391914E-1,9.566803932E0,-6.583253145E-1,9.592781793E0
1.418679552E0,4.405784607E-1,9.633803368E0,-4.334000051E-1,9.653606180E0
1.421185594E0,6.200401783E-1,9.686445236E0,-2.368894368E-1,9.709159992E0
1.423691636E0,8.066803217E-1,9.736694336E0,-8.614161611E-2,9.770433466E0
1.426197677E0,9.744769931E-1,9.798908234E0,-4.307080805E-2,9.847337867E0
1.428703667E0,1.125224829E0,9.823135376E0,-7.417750359E-2,9.887649965E0
1.431209709E0,1.247258782E0,9.830313683E0,-1.531406492E-1,9.910306435E0
1.433715750E0,1.319043517E0,9.839884758E0,-2.727817893E-1,9.931647283E0
1.436221792E0,1.335793257E0,9.832706451E0,-3.951148391E-1,9.930889966E0
1.438727834E0,1.278365493E0,9.830313683E0,-4.884349108E-1,9.925112296E0
1.441233875E0,1.175474167E0,9.810872078E0,-5.362913609E-1,9.895582796E0
1.443739917E0,1.029511929E0,9.779765129E0,-5.362913609E-1,9.848416584E0
1.446245959E0,8.763712645E-1,9.748658180E0,-5.458626747E-1,9.803179534E0
1.448752000E0,7.085745931E-1,9.710372925E0,-5.147559643E-1,9.749789433E0
1.451258042E0,5.482555032E-1,9.676874161E0,-5.003990531E-1,9.705301481E0
1.453764084E0,3.879363835E-1,9.636196136E0,-5.243272781E-1,9.658244650E0
1.456270125E0,2.488535494E-1,9.619445801E0,-5.458626747E-1,9.638134242E0
1.458776167E0,1.244267747E-1,9.600303650E0,-5.721837282E-1,9.618144645E0
1.461282209E0,7.178467698E-3,9.576375008E0,-5.841478109E-1,9.594177322E0
1.463788250E0,-8.135596663E-2,9.571589470E0,-5.841478109E-1,9.589743085E0
1.466294292E0,-1.363908947E-1,9.569196701E0,-5.793621540E-1,9.587689424E0
1.468800334E0,-1.531406492E-1,9.588339806E0,-5.865406394E-1,9.607483656E0
1.471306375E0,-1.555334777E-1,9.602696419E0,-5.769693851E-1,9.621271374E0
1.473812417E0,-1.316052526E-1,9.621838570E0,-5.602195859E-1,9.639032285E0
1.476318459E0,-1.052841991E-1,9.609874725E0,-5.626124144E-1,9.626905512E0
1.478824448E0,-5.982056633E-2,9.602696419E0,-5.650052428E-1,9.619490004E0
1.481330490E0,-2.392822644E-3,9.609874725E0,-5.410770178E-1,9.625095444E0
1.483836532E0,3.828516230E-2,9.590732574E0,-5.434698462E-1,9.606194696E0
1.486342573E0,9.092725813E-2,9.581160545E0,-5.386841893E-1,9.596722660E0
1.488848615E0,1.316052526E-1,9.593125343E0,-5.195416212E-1,9.608084996E0
1.491354657E0,1.507478207E-1,9.590732574E0,-4.932205677E-1,9.604589671E0
1.493860698E0,1.698904037E-1,9.578767776E0,-5.003990531E-1,9.593333835E0
1.496366740E0,2.105683982E-1,9.571589470E0,-5.099703074E-1,9.587477966E0
1.498872782E0,2.201396823E-1,9.533304214E0,-5.243272781E-1,9.550249726E0
1.501378823E0,2.608176768E-1,9.552447319E0,-5.362913609E-1,9.571044043E0
1.503884865E0,2.970091105E-1,9.569196701E0,-5.386841893E-1,9.588947834E0
1.506390907E0,3.209373355E-1,9.533304214E0,-5.410770178E-1,9.554038641E0
1.508896948E0,3.305086195E-1,9.487840652E0,-5.362913609E-1,9.508730968E0
1.511402990E0,3.568296731E-1,9.435198784E0,-5.338985324E-1,9.457026549E0
1.513909032E0,3.592225015E-1,9.499805450E0,-5.003990531E-1,9.519755439E0
1.516415073E0,3.951148391E-1,9.566803932E0,-4.094717801E-1,9.583711199E0
1.518921115E0,4.357928336E-1,9.650552750E0,-3.711866140E-1,9.667515879E0
1.521427157E0,5.267201066E-1,9.710372925E0,-3.927220106E-1,9.732574530E0
1.523933198E0,5.961119533E-1,9.717552185E0,-4.668995142E-1,9.747008007E0
1.526439240E0,6.846463680E-1,9.748658180E0,-5.889334679E-1,9.790399358E0
1.528945229E0,7.444669604E-1,9.784550667E0,-6.559324861E-1,9.834729800E0
1.531451271E0,7.636095285E-1,9.758230209E0,-7.181459069E-1,9.814371599E0
1.533957313E0,7.851449251E-1,9.707980156E0,-7.396813035E-1,9.767725410E0
1.536463354E0,7.803592682E-1,9.657731056E0,-7.420741320E-1,9.717582197E0
1.538969396E0,7.755736113E-1,9.629017830E0,-6.990033388E-1,9.685458402E0
1.541475438E0,7.636095285E-1,9.626625061E0,-6.415755749E-1,9.678152137E0
1.543981479E0,7.468597889E-1,9.617053032E0,-5.793621540E-1,9.663393248E0
1.546487521E0,6.918248534E-1,9.621838570E0,-5.769693851E-1,9.663917051E0
1.548993563E0,6.678966284E-1,9.640981674E0,-6.774678826E-1,9.687805545E0
1.551499604E0,6.511468887E-1,9.662516594E0,-8.258228898E-1,9.719578316E0
1.554005646E0,6.367899179E-1,9.679266930E0,-1.015154958E0,9.753166116E0
1.556511688E0,6.415755749E-1,9.715159416E0,-1.225723386E0,9.813171736E0
1.559017729E0,6.655037999E-1,9.751050949E0,-1.455733418E0,9.881550977E0
1.561523771E0,6.822535396E-1,9.753444672E0,-1.671087503E0,9.919056724E0
1.564029813E0,6.583253145E-1,9.782157898E0,-1.802692771E0,9.968636145E0
1.566535854E0,6.032904387E-1,9.786943436E0,-1.855334878E0,9.979503428E0
1.569041896E0,5.027918816E-1,9.770194054E0,-1.821835399E0,9.951310253E0
1.571547886E0,3.520440459E-1,9.724730492E0,-1.759621978E0,9.888912359E0
1.574053927E0,1.986042857E-1,9.686445236E0,-1.683051586E0,9.833581627E0
1.576559969E0,4.307080805E-2,9.652945518E0,-1.625623941E0,9.788966517E0
1.579066011E0,-7.657032460E-2,9.595518112E0,-1.613659739E0,9.730556439E0
1.581572052E0,-1.459621787E-1,9.521340370E0,-1.690230131E0,9.671303185E0
1.584078094E0,-1.818545163E-1,9.408877373E0,-1.809871197E0,9.583093354E0
1.586584136E0,-1.435693651E-1,9.337093353E0,-1.970489502E0,9.543833262E0
1.589090177E0,-3.589234129E-2,9.289237022E0,-2.126022816E0,9.529490319E0
1.591596219E0,1.507478207E-1,9.303593636E0,-2.286342144E0,9.581593805E0
1.594102261E0,3.903291821E-1,9.341878891E0,-2.437089920E0,9.662425439E0
1.596608302E0,7.109674215E-1,9.384949684E0,-2.513660192E0,9.741726891E0
1.599114344E0,1.043868899E0,9.456734657E0,-2.542673111E0,9.848079976E0
1.601620386E0,1.352542996E0,9.538089752E0,-2.506481647E0,9.954244267E0
1.604126427E0,1.644766450E0,9.602696419E0,-2.382055044E0,1.002951751E1
1.606632469E0,1.893620014E0,9.667302132E0,-2.176272154E0,1.008854240E1
1.609138511E0,2.149951220E0,9.715159416E0,-1.936690807E0,1.013693169E1
1.611644552E0,2.319841623E0,9.746265411E0,-1.695015788E0,1.016092679E1
1.614150594E0,2.444268227E0,9.779765129E0,-1.489233017E0,1.018999844E1
1.616656636E0,2.557030201E0,9.777372360E0,-1.333400369E0,1.019379077E1
1.619162677E0,2.628814697E0,9.767801285E0,-1.273579836E0,1.019522507E1
1.621668719E0,2.609672308E0,9.743872643E0,-1.252044439E0,1.016469670E1
1.624174709E0,2.542673111E0,9.734301567E0,-1.292722464E0,1.014361597E1
1.626680750E0,2.408375978E0,9.705587387E0,-1.371685624E0,1.009357334E1
1.629186792E0,2.221735716E0,9.655338287E0,-1.434198022E0,1.001092358E1
1.631692834E0,1.982453585E0,9.609874725E0,-1.513161182E0,9.928215913E0
1.634198875E0,1.718943954E0,9.573982239E0,-1.553839207E0,9.850396972E0
1.636704917E0,1.465304732E0,9.542876244E0,-1.570588946E0,9.781633534E0
1.639210959E0,1.232901812E0,9.514162064E0,-1.549053550E0,9.717967563E0
1.641717000E0,1.043868899E0,9.504590988E0,-1.539482236E0,9.684880881E0
1.644223042E0,8.931210637E-1,9.490233421E0,-1.563410521E0,9.659526287E0
1.646729084E0,7.731808424E-1,9.485447884E0,-1.628016710E0,9.655152437E0
1.649235125E0,7.013961077E-1,9.480662346E0,-1.721336842E0,9.661154980E0
1.651741167E0,6.678966284E-1,9.518947601E0,-1.793121457E0,9.709363208E0
1.654247209E0,6.702894568E-1,9.557232857E0,-1.817049742E0,9.751495147E0
1.656753250E0,6.822535396E-1,9.619445801E0,-1.790728688E0,9.808461482E0
1.659259292E0,6.655037999E-1,9.693623543E0,-1.747657895E0,9.872362474E0
1.661765334E0,6.200401783E-1,9.715159416E0,-1.721336842E0,9.885938136E0
1.664271375E0,5.291129351E-1,9.710372925E0,-1.695015788E0,9.871392068E0
1.666777417E0,4.142574072E-1,9.657731056E0,-1.704586983E0,9.815752398E0
1.669283459E0,3.257229924E-1,9.581160545E0,-1.766800404E0,9.748144261E0
1.671789500E0,2.512463629E-1,9.475876808E0,-1.843370795E0,9.656779065E0
1.674295542E0,1.603191197E-1,9.389735222E0,-1.917548299E0,9.584874607E0
1.676801532E0,1.339980662E-1,9.322735786E0,-1.989632010E0,9.533624367E0
1.679307573E0,1.794617027E-1,9.257830620E0,-2.044667006E0,9.482631357E0
1.681813615E0,3.161516786E-1,9.253045082E0,-2.114058733E0,9.496738361E0
1.684319657E0,4.932205677E-1,9.260522842E0,-2.154736757E0,9.520684867E0
1.686825698E0,7.085745931E-1,9.315557480E0,-2.188236237E0,9.595314843E0
1.689331740E0,9.553344250E-1,9.361021042E0,-2.202593327E0,9.663994835E0
1.691837782E0,1.204187989E0,9.413662910E0,-2.145165443E0,9.729792027E0
1.694343823E0,1.429412484E0,9.456734657E0,-2.044667006E0,9.780271652E0
1.696849865E0,1.608874083E0,9.497411728E0,-1.891227245E0,9.816620897E0
1.699355907E0,1.776371717E0,9.562018394E0,-1.721336842E0,9.876775424E0
1.701861948E0,1.943869352E0,9.612267494E0,-1.589731574E0,9.934865923E0
1.704367990E0,2.061416626E0,9.633803368E0,-1.479661703E0,9.962379464E0
1.706874032E0,2.157129526E0,9.650552750E0,-1.422233939E0,9.990451719E0
1.709380073E0,2.197807550E0,9.626625061E0,-1.422233939E0,9.976222605E0
1.711886115E0,2.212164640E0,9.609874725E0,-1.491625786E0,9.973380175E0
1.714392157E0,2.190629244E0,9.581160545E0,-1.611266971E0,9.959602157E0
1.716898198E0,2.140379906E0,9.547661781E0,-1.776371717E0,9.944574808E0
1.719404240E0,2.042274237E0,9.485447884E0,-1.941476464E0,9.895147117E0
1.721910282E0,1.934298038E0,9.456734657E0,-2.070987940E0,9.872199873E0
1.724416323E0,1.848156333E0,9.459127426E0,-2.207378864E0,9.887532298E0
1.726922313E0,1.759621978E0,9.459127426E0,-2.295913219E0,9.891540764E0
1.729428354E0,1.671087503E0,9.468698502E0,-2.358126640E0,9.899977071E0
1.731934396E0,1.580160260E0,9.466305733E0,-2.372483730E0,9.886178722E0
1.734440438E0,1.460519075E0,9.451948166E0,-2.336591244E0,9.845410034E0
1.736946479E0,1.323829174E0,9.399306297E0,-2.226521492E0,9.749711817E0
1.739452521E0,1.232901812E0,9.380164146E0,-2.099701881E0,9.691040929E0
1.741958563E0,1.211366415E0,9.384949684E0,-1.970489502E0,9.665791123E0
1.744464604E0,1.242473125E0,9.392127991E0,-1.862513304E0,9.655297171E0
1.746970646E0,1.271187067E0,9.430413246E0,-1.783550143E0,9.681408042E0
1.749476688E0,1.316650629E0,9.461520195E0,-1.726122379E0,9.707390574E0
1.751982729E0,1.371685624E0,9.480662346E0,-1.726122379E0,9.733651855E0
1.754488771E0,1.395613790E0,9.509376526E0,-1.738086581E0,9.767134929E0
1.756994813E0,1.395613790E0,9.542876244E0,-1.733300924E0,9.798905905E0
1.759500854E0,1.398006678E0,9.597910881E0,-1.735693693E0,9.853270957E0
1.762006896E0,1.427019596E0,9.629017830E0,-1.738086581E0,9.888140081E0
1.764512938E0,1.427019596E0,9.617053032E0,-1.788335800E0,9.885455927E0
1.767018979E0,1.484447360E0,9.585947037E0,-1.855334878E0,9.876043341E0
1.769525021E0,1.549053550E0,9.557232857E0,-1.929512382E0,9.872349508E0
1.772031063E0,1.630409479E0,9.509376526E0,-2.003988981E0,9.854057480E0
1.774537104E0,1.716551185E0,9.423234940E0,-2.066202402E0,9.798627305E0
1.777043094E0,1.821835399E0,9.353842735E0,-2.073380709E0,9.752556880E0
1.779549136E0,1.970489502E0,9.334700584E0,-2.070987940E0,9.762604925E0
1.782055177E0,2.104487419E0,9.327521324E0,-2.001596212E0,9.769232761E0
1.784561219E0,2.257628202E0,9.380164146E0,-1.929512382E0,9.839074273E0
1.787067261E0,2.449054003E0,9.439984322E0,-1.824228168E0,9.921641896E0
1.789573302E0,2.626421928E0,9.502198219E0,-1.714158297E0,1.000640804E1
1.792079344E0,2.786741018E0,9.593125343E0,-1.620838284E0,1.012033083E1
1.794585386E0,2.951845884E0,9.686445236E0,-1.537089467E0,1.024222922E1
1.797091427E0,3.047558784E0,9.755837440E0,-1.489233017E0,1.032868790E1
1.799597469E0,3.088535786E0,9.825528145E0,-1.460519075E0,1.040255606E1
1.802103511E0,3.078665495E0,9.878170013E0,-1.508375525E0,1.045617620E1
1.804609552E0,2.915953398E0,9.866206169E0,-1.501197100E0,1.039703809E1
1.807115594E0,2.655135870E0,9.827920914E0,-1.429412484E0,1.028012626E1
1.809621636E0,2.346162558E0,9.794121742E0,-1.381256819E0,1.016548916E1
1.812127677E0,2.023131609E0,9.774979591E0,-1.364507079E0,1.007497727E1
1.814633719E0,1.637588024E0,9.760622978E0,-1.340578914E0,9.987422454E0
1.817139761E0,1.230509043E0,9.748658180E0,-1.335793257E0,9.916392108E0
1.819645802E0,8.452646136E-1,9.703194618E0,-1.388435364E0,9.838404892E0
1.822151844E0,5.123631358E-1,9.700801849E0,-1.539482236E0,9.835551741E0
1.824657886E0,2.488535494E-1,9.700801849E0,-1.848156333E0,9.878419228E0
1.827163927E0,8.135596663E-2,9.722337723E0,-2.236092806E0,9.976501422E0
1.829669917E0,-6.460621208E-2,9.736694336E0,-2.607279301E0,1.007994523E1
1.832175959E0,-1.387837082E-1,9.717552185E0,-2.920739174E0,1.014794554E1
1.834682000E0,-1.866401732E-1,9.672088623E0,-3.119642496E0,1.016446271E1
1.837188042E0,-1.794617027E-1,9.593125343E0,-3.220141172E0,1.012074945E1
1.839694084E0,-1.004985496E-1,9.483055115E0,-3.248854876E0,1.002464425E1
1.842200125E0,1.914258115E-2,9.334700584E0,-3.260818958E0,9.887868411E0
1.844706167E0,2.273181528E-1,9.221938133E0,-3.227319479E0,9.772993784E0
1.847212209E0,5.506483316E-1,9.154939651E0,-3.193820000E0,9.711674408E0
1.849718250E0,9.266205430E-1,9.128618240E0,-3.122035265E0,9.692130870E0
1.852224292E0,1.352542996E0,9.162117958E0,-3.006880760E0,9.737305066E0
1.854730334E0,1.809871197E0,9.262915611E0,-2.887239695E0,9.869822310E0
1.857236375E0,2.233700037E0,9.363413811E0,-2.724527597E0,1.000429831E1
1.859742417E0,2.609672308E0,9.478269577E0,-2.530709028E0,1.015147634E1
1.862248459E0,2.949453115E0,9.595518112E0,-2.365305185E0,1.031348196E1
1.864754500E0,3.198605776E0,9.664909363E0,-2.185843468E0,1.041246674E1
1.867260542E0,3.361317635E0,9.676874161E0,-2.049452543E0,1.044703812E1
1.869766584E0,3.421138287E0,9.672088623E0,-1.929512382E0,1.043918117E1
1.872272625E0,3.437887907E0,9.626625061E0,-1.852941990E0,1.038866581E1
1.874778615E0,3.428316593E0,9.566803932E0,-1.802692771E0,1.032118178E1
1.877284657E0,3.363710403E0,9.528518677E0,-1.793121457E0,1.026267511E1
1.879790698E0,3.315854073E0,9.475876808E0,-1.829013824E0,1.020452944E1
1.882296740E0,3.244069338E0,9.449555397E0,-1.874477386E0,1.016522250E1
1.884802782E0,3.160320520E0,9.451948166E0,-1.898405671E0,1.014548639E1
1.887308823E0,3.083451033E0,9.473484039E0,-1.917548299E0,1.014551929E1
1.889814865E0,2.975774050E0,9.454340935E0,-1.905584097E0,1.009311867E1
1.892320907E0,2.853740215E0,9.454340935E0,-1.852941990E0,1.004797441E1
1.894826948E0,2.729313374E0,9.473484039E0,-1.831406593E0,1.002746735E1
1.897332990E0,2.595315218E0,9.468698502E0,-1.824228168E0,9.985976207E0
1.899839032E0,2.453839540E0,9.487840652E0,-1.829013824E0,9.969239706E0
1.902345073E0,2.295913219E0,9.511769295E0,-1.829013824E0,9.954409284E0
1.904851115E0,2.106880426E0,9.540482521E0,-1.860120535E0,9.945843366E0
1.907357157E0,1.874477386E0,9.569196701E0,-1.850549221E0,9.925105712E0
1.909863198E0,1.635195136E0,9.545269012E0,-1.838585138E0,9.857302824E0
1.912369240E0,1.431805253E0,9.530911446E0,-1.836192250E0,9.811215075E0
1.914875282E0,1.261615753E0,9.497411728E0,-1.819442511E0,9.752070287E0
1.917381323E0,1.132403374E0,9.468698502E0,-1.833799481E0,9.710891270E0
1.919887365E0,1.074975610E0,9.459127426E0,-1.872084618E0,9.702338122E0
1.922393407E0,1.063011408E0,9.439984322E0,-1.934298038E0,9.694576120E0
1.924899448E0,1.113260746E0,9.447162628E0,-1.984846354E0,9.717399151E0
1.927405438E0,1.199402332E0,9.454340935E0,-2.032702923E0,9.744486115E0
1.929911479E0,1.309472203E0,9.468698502E0,-2.066202402E0,9.779578781E0
1.932417521E0,1.431805253E0,9.492626190E0,-2.066202402E0,9.819837607E0
1.934923563E0,1.561017632E0,9.487840652E0,-2.035095692E0,9.828403267E0
1.937429604E0,1.647159338E0,9.490233421E0,-1.943869352E0,9.826306139E0
1.939935646E0,1.687837243E0,9.516554832E0,-1.848156333E0,9.840187614E0
1.942441688E0,1.721336842E0,9.542876244E0,-1.788335800E0,9.860407317E0
1.944947729E0,1.714158297E0,9.583553314E0,-1.740479350E0,9.890000059E0
1.947453771E0,1.733300924E0,9.605089188E0,-1.740479350E0,9.914198846E0
1.949959813E0,1.747657895E0,9.612267494E0,-1.797907114E0,9.933904796E0
1.952465854E0,1.733300924E0,9.590732574E0,-1.876870275E0,9.925176343E0
1.954971896E0,1.723729610E0,9.576375008E0,-1.963011861E0,9.926309366E0
1.957477938E0,1.704586983E0,9.545269012E0,-2.049452543E0,9.910501149E0
1.959983979E0,1.663909078E0,9.526125908E0,-2.082952023E0,9.892136137E0
1.962490021E0,1.637588024E0,9.530911446E0,-2.085345030E0,9.892857596E0
1.964996063E0,1.606481314E0,9.552447319E0,-2.061416626E0,9.903507990E0
1.967502104E0,1.584945917E0,9.566803932E0,-2.006381750E0,9.902593537E0
1.970008146E0,1.544267893E0,9.559625626E0,-1.946262121E0,9.877203130E0
1.972514188E0,1.510768414E0,9.562018394E0,-1.898405671E0,9.865017033E0
1.975020229E0,1.460519075E0,9.552447319E0,-1.884048700E0,9.845405287E0
1.977526271E0,1.415055513E0,9.562018394E0,-1.896012783E0,9.850352398E0
1.980032261E0,1.359721422E0,9.559625626E0,-1.931905150E0,9.847209857E0
1.982538302E0,1.299900889E0,9.569196701E0,-1.951047778E0,9.852200529E0
1.985044344E0,1.230509043E0,9.566803932E0,-1.960619092E0,9.842861231E0
1.987550386E0,1.149153113E0,9.554840088E0,-1.989632010E0,9.827215146E0
1.990056427E0,1.063011408E0,9.550054550E0,-2.030309916E0,9.821185953E0
1.992562469E0,9.840483069E-1,9.547661781E0,-2.085345030E0,9.822161700E0
1.995068511E0,9.026923180E-1,9.538089752E0,-2.135594130E0,9.815842900E0
1.997574552E0,8.306085467E-1,9.526125908E0,-2.193022013E0,9.810521440E0
2.000080594E0,7.995018363E-1,9.521340370E0,-2.238485575E0,9.813559156E0
2.002586636E0,7.779664397E-1,9.530911446E0,-2.315055847E0,9.838850967E0
2.005092677E0,7.995018363E-1,9.518947601E0,-2.362912416E0,9.840372031E0
2.007598719E0,8.596215248E-1,9.483055115E0,-2.403590441E0,9.820617622E0
2.010104761E0,9.625129104E-1,9.437591553E0,-2.417947292E0,9.789843437E0
2.012610802E0,1.101296663E0,9.384949684E0,-2.434697151E0,9.757965215E0
2.015116844E0,1.278365493E0,9.368199348E0,-2.439482689E0,9.764653253E0
2.017622886E0,1.448554993E0,9.351449966E0,-2.415554523E0,9.766413451E0
2.020128927E0,1.635195136E0,9.344271660E0,-2.331805706E0,9.768653635E0
2.022634969E0,1.819442511E0,9.346664429E0,-2.193022013E0,9.771379255E0
2.025140959E0,1.958226204E0,9.375378609E0,-2.049452543E0,9.794520389E0
2.027647000E0,2.082952023E0,9.411270142E0,-1.900798440E0,9.824649079E0
2.030153042E0,2.176272154E0,9.456734657E0,-1.778764486E0,9.865596483E0
2.032659084E0,2.197807550E0,9.466305733E0,-1.683051586E0,9.862756455E0
2.035165125E0,2.152343988E0,9.463912964E0,-1.594517231E0,9.835685967E0
2.037671167E0,2.126022816E0,9.468698502E0,-1.541875124E0,9.826169306E0
2.040177209E0,2.054238319E0,9.475876808E0,-1.525125384E0,9.815199631E0
2.042683250E0,1.989632010E0,9.506983757E0,-1.505982757E0,9.829006041E0
2.045189292E0,1.886441588E0,9.497411728E0,-1.544267893E0,9.805317676E0
2.047695334E0,1.826620936E0,9.487840652E0,-1.587338686E0,9.791593762E0
2.050201375E0,1.757229090E0,9.475876808E0,-1.616052628E0,9.771986566E0
2.052707417E0,1.668694735E0,9.456734657E0,-1.649552107E0,9.743479597E0
2.055213459E0,1.616052628E0,9.466305733E0,-1.673480392E0,9.747979634E0
2.057719500E0,1.556231976E0,9.451948166E0,-1.706979871E0,9.730105979E0
2.060225542E0,1.532303810E0,9.471091270E0,-1.738086581E0,9.750408698E0
2.062731584E0,1.498804331E0,9.530911446E0,-1.773978829E0,9.809775140E0
2.065237625E0,1.477268934E0,9.562018394E0,-1.785943031E0,9.838908059E0
2.067743667E0,1.443769336E0,9.578767776E0,-1.778764486E0,9.848922028E0
2.070249709E0,1.405484200E0,9.590732574E0,-1.793121457E0,9.857627590E0
2.072755750E0,1.393221021E0,9.600303650E0,-1.812264085E0,9.868697791E0
2.075261792E0,1.386042476E0,9.559625626E0,-1.829013824E0,9.831218003E0
2.077767782E0,1.366899967E0,9.528518677E0,-1.845763564E0,9.801424735E0
2.080273823E0,1.354935765E0,9.502198219E0,-1.860120535E0,9.776894718E0
2.082779865E0,1.371685624E0,9.478269577E0,-1.872084618E0,9.758269131E0
2.085285907E0,1.378864050E0,9.495018959E0,-1.867298961E0,9.774633318E0
2.087791948E0,1.395613790E0,9.509376526E0,-1.860120535E0,9.789587742E0
2.090297990E0,1.388435364E0,9.480662346E0,-1.855334878E0,9.759763255E0
2.092804032E0,1.374078393E0,9.449555397E0,-1.831406593E0,9.722974789E0
2.095310073E0,1.412662625E0,9.399306297E0,-1.840977907E0,9.681517144E0
2.097816115E0,1.510768414E0,9.358628273E0,-1.812264085E0,9.651458204E0
2.100322157E0,1.680658817E0,9.353842735E0,-1.802692771E0,9.673090985E0
2.102828198E0,1.884048700E0,9.361021042E0,-1.831406593E0,9.722777616E0
2.105334240E0,2.121237278E0,9.384949684E0,-1.852941990E0,9.798485709E0
2.107840282E0,2.343769789E0,9.380164146E0,-1.848156333E0,9.843597821E0
2.110346323E0,2.578565598E0,9.396913528E0,-1.809871197E0,9.910934272E0
2.112852365E0,2.750848770E0,9.408877373E0,-1.766800404E0,9.960709113E0
2.115358407E0,2.932703257E0,9.404091835E0,-1.678265929E0,9.992710751E0
2.117864448E0,3.071486950E0,9.396913528E0,-1.647159338E0,1.002243233E1
2.120370490E0,3.165106058E0,9.413662910E0,-1.572981834E0,1.005530793E1
2.122876532E0,3.198605776E0,9.420842171E0,-1.505982757E0,1.006237200E1
2.125382573E0,3.191427231E0,9.439984322E0,-1.505982757E0,1.007802043E1
2.127888563E0,3.105285645E0,9.442377090E0,-1.527518153E0,1.005656978E1
2.130394604E0,2.959024191E0,9.406484604E0,-1.580160260E0,9.986725350E0
2.132900646E0,2.765205622E0,9.396913528E0,-1.642373681E0,9.932056046E0
2.135406688E0,2.573779821E0,9.382556915E0,-1.687837243E0,9.874487906E0
2.137912729E0,2.360519648E0,9.344271660E0,-1.735693693E0,9.792859565E0
2.140418771E0,2.164308071E0,9.308379173E0,-1.797907114E0,9.724331455E0
2.142924813E0,2.020738840E0,9.286844254E0,-1.857727647E0,9.684008140E0
2.145430854E0,1.915155411E0,9.257830620E0,-1.907976985E0,9.644460804E0
2.147936896E0,1.864906192E0,9.262915611E0,-1.968096614E0,9.651574224E0
2.150442938E0,1.867298961E0,9.241081238E0,-1.994417667E0,9.636497791E0
2.152948979E0,1.931905150E0,9.255437851E0,-2.011167526E0,9.666446200E0
2.155455021E0,2.030309916E0,9.301200867E0,-1.980060697E0,9.723946538E0
2.157961063E0,2.149951220E0,9.337093353E0,-1.927119493E0,9.773299958E0
2.160467104E0,2.228914261E0,9.368199348E0,-1.831406593E0,9.802309316E0
2.162973146E0,2.286342144E0,9.380164146E0,-1.721336842E0,9.807030149E0
2.165479188E0,2.312663078E0,9.404091835E0,-1.608874083E0,9.817017346E0
2.167985229E0,2.307877541E0,9.377771378E0,-1.520339727E0,9.776519199E0
2.170491271E0,2.274377823E0,9.356235504E0,-1.438983679E0,9.735636154E0
2.172997313E0,2.236092806E0,9.344271660E0,-1.362114310E0,9.704168140E0
2.175503354E0,2.209771633E0,9.327521324E0,-1.299900889E0,9.673442358E0
2.178009396E0,2.140379906E0,9.286844254E0,-1.254437327E0,9.612508275E0
2.180515386E0,2.118844509E0,9.298808098E0,-1.259222865E0,9.619926004E0
2.183021427E0,2.075773716E0,9.322735786E0,-1.266401410E0,9.634625659E0
2.185527469E0,2.042274237E0,9.358628273E0,-1.285543919E0,9.664751956E0
2.188033511E0,2.020738840E0,9.408877373E0,-1.331007600E0,9.715036804E0
2.190539552E0,1.968096614E0,9.437591553E0,-1.352542996E0,9.735035242E0
2.193045594E0,1.917548299E0,9.459127426E0,-1.395613790E0,9.751913709E0
2.195551636E0,1.855334878E0,9.483055115E0,-1.427019596E0,9.767650011E0
2.198057677E0,1.790728688E0,9.480662346E0,-1.453340650E0,9.757144398E0
2.200563719E0,1.726122379E0,9.478269577E0,-1.462911963E0,9.744598712E0
2.203069761E0,1.678265929E0,9.449555397E0,-1.446162224E0,9.705774514E0
2.205575802E0,1.656730533E0,9.454340935E0,-1.427019596E0,9.703901457E0
2.208081844E0,1.654337764E0,9.432806015E0,-1.405484200E0,9.679361993E0
2.210587886E0,1.690230131E0,9.404091835E0,-1.362114310E0,9.651382105E0
2.213093927E0,1.740479350E0,9.399306297E0,-1.323829174E0,9.650323876E0
2.215599969E0,1.836192250E0,9.401699066E0,-1.307079315E0,9.668092038E0
2.218106011E0,1.943869352E0,9.408877373E0,-1.304686546E0,9.695762397E0
2.220612052E0,2.042274237E0,9.394520760E0,-1.323829174E0,9.704660120E0
2.223118094E0,2.128415823E0,9.392127991E0,-1.350150228E0,9.724460280E0
2.225624136E0,2.202593327E0,9.411270142E0,-1.357328653E0,9.760418235E0
2.228130177E0,2.271985054E0,9.459127426E0,-1.338186026E0,9.819763215E0
2.230636167E0,2.293520451E0,9.497411728E0,-1.302293777E0,9.856826805E0
2.233142261E0,2.293520451E0,9.521340370E0,-1.280758262E0,9.877069415E0
2.235648302E0,2.274377823E0,9.514162064E0,-1.247258782E0,9.861426303E0
2.238154292E0,2.221735716E0,9.523733139E0,-1.228116274E0,9.856260552E0
2.240660334E0,2.188236237E0,9.540482521E0,-1.201795220E0,9.861718730E0
2.243166375E0,2.147558212E0,9.521340370E0,-1.192223907E0,9.833073099E0
2.245672417E0,2.080559254E0,9.490233421E0,-1.180259824E0,9.787046053E0
2.248178459E0,2.013560295E0,9.502198219E0,-1.213759303E0,9.788738821E0
2.250684500E0,1.951047778E0,9.514162064E0,-1.256830096E0,9.793134794E0
2.253190542E0,1.903191328E0,9.502198219E0,-1.335793257E0,9.782548331E0
2.255696584E0,1.872084618E0,9.504590988E0,-1.424626827E0,9.791399913E0
2.258202625E0,1.857727647E0,9.511769295E0,-1.534696579E0,9.812247485E0
2.260708667E0,1.855334878E0,9.535696983E0,-1.639980793E0,9.851970436E0
2.263214709E0,1.831406593E0,9.550054550E0,-1.733300924E0,9.877343981E0
2.265720750E0,1.793121457E0,9.569196701E0,-1.769193292E0,9.895193529E0
2.268226792E0,1.764407635E0,9.576375008E0,-1.754836321E0,9.894419796E0
2.270732834E0,1.726122379E0,9.578767776E0,-1.663909078E0,9.874253592E0
2.273238875E0,1.697408557E0,9.581160545E0,-1.608874083E0,9.862469722E0
2.275744917E0,1.656730533E0,9.554840088E0,-1.563410521E0,9.822625801E0
2.278250959E0,1.663909078E0,9.535696983E0,-1.546660781E0,9.802564458E0
2.280757000E0,1.709372640E0,9.535696983E0,-1.551446438E0,9.811139477E0
2.283263042E0,1.766800404E0,9.504590988E0,-1.561017632E0,9.792630370E0
2.285769084E0,1.812264085E0,9.451948166E0,-1.558624864E0,9.749509563E0
2.288275073E0,1.888834357E0,9.430413246E0,-1.582553029E0,9.747043824E0
2.290781115E0,1.946262121E0,9.432806015E0,-1.561017632E0,9.757178978E0
2.293287157E0,2.015953064E0,9.466305733E0,-1.529910922E0,9.798756983E0
2.295793198E0,2.099701881E0,9.478269577E0,-1.501197100E0,9.823438039E0
2.298299240E0,2.154736757E0,9.454340935E0,-1.474876046E0,9.808298138E0
2.300805282E0,2.212164640E0,9.437591553E0,-1.427019596E0,9.797866688E0
2.303311323E0,2.233700037E0,9.420842171E0,-1.364507079E0,9.777707432E0
2.305817365E0,2.219342947E0,9.401699066E0,-1.321436286E0,9.750057554E0
2.308323407E0,2.233700037E0,9.384949684E0,-1.290329576E0,9.733018383E0
2.310829448E0,2.281556368E0,9.387342453E0,-1.290329576E0,9.746417198E0
2.313335490E0,2.348555326E0,9.392127991E0,-1.299900889E0,9.768189322E0
2.315841532E0,2.405983210E0,9.408877373E0,-1.335793257E0,9.803064431E0
2.318347573E0,2.470589399E0,9.411270142E0,-1.393221021E0,9.829388713E0
2.320853615E0,2.516052961E0,9.392127991E0,-1.422233939E0,9.826766512E0
2.323359657E0,2.533101797E0,9.389735222E0,-1.427019596E0,9.829553254E0
2.325865698E0,2.535494804E0,9.384949684E0,-1.412662625E0,9.823524325E0
2.328371740E0,2.525923491E0,9.413662910E0,-1.400399446E0,9.846748574E0
2.330877782E0,2.516052961E0,9.444769859E0,-1.395613790E0,9.873294184E0
2.333383771E0,2.480160713E0,9.454340935E0,-1.410269856E0,9.875455470E0
2.335889813E0,2.372483730E0,9.454340935E0,-1.422233939E0,9.850684795E0
2.338395854E0,2.281556368E0,9.480662346E0,-1.448554993E0,9.858335029E0
2.340901896E0,2.183450699E0,9.456734657E0,-1.407876968E0,9.807109915E0
2.343407938E0,2.102094650E0,9.437591553E0,-1.366899967E0,9.765006490E0
2.345913979E0,2.030309916E0,9.425627708E0,-1.338186026E0,9.734236379E0
2.348420021E0,1.987239242E0,9.430413246E0,-1.340578914E0,9.730311692E0
2.350926063E0,1.953440547E0,9.384949684E0,-1.342971683E0,9.679709886E0
2.353432104E0,1.963011861E0,9.370592117E0,-1.371685624E0,9.671759594E0
2.355938146E0,1.994417667E0,9.365806580E0,-1.374078393E0,9.673888884E0
2.358444188E0,2.037488461E0,9.334700584E0,-1.371685624E0,9.652435738E0
2.360950229E0,2.099701881E0,9.339486122E0,-1.381256819E0,9.671743349E0
2.363456271E0,2.190629244E0,9.361021042E0,-1.366899967E0,9.710612079E0
2.365962313E0,2.286342144E0,9.384949684E0,-1.354935765E0,9.753998765E0
2.368468354E0,2.396411896E0,9.420842171E0,-1.364507079E0,9.816156924E0
2.370974396E0,2.461018085E0,9.451948166E0,-1.354935765E0,9.860617885E0
2.373480438E0,2.511267424E0,9.485447884E0,-1.342971683E0,9.903724479E0
2.375986479E0,2.513660192E0,9.533304214E0,-1.340578914E0,9.949850684E0
2.378492521E0,2.496910334E0,9.538089752E0,-1.309472203E0,9.946076351E0
2.380998563E0,2.434697151E0,9.526125908E0,-1.261615753E0,9.912946047E0
2.383504604E0,2.358126640E0,9.528518677E0,-1.244866014E0,9.894600589E0
2.386010594E0,2.267199516E0,9.516554832E0,-1.223330617E0,9.859084507E0
2.388516636E0,2.161915302E0,9.523733139E0,-1.185045362E0,9.837667568E0
2.391022677E0,2.078166485E0,9.504590988E0,-1.158724308E0,9.797890988E0
2.393528719E0,2.030309916E0,9.495018959E0,-1.168295622E0,9.779696214E0
2.396034761E0,1.984846354E0,9.492626190E0,-1.182652593E0,9.769761215E0
2.398540802E0,1.943869352E0,9.485447884E0,-1.220937729E0,9.759253996E0
2.401046844E0,1.896012783E0,9.463912964E0,-1.259222865E0,9.733763675E0
2.403552886E0,1.881655931E0,9.473484039E0,-1.302293777E0,9.745947772E0
2.406058927E0,1.852941990E0,9.468698502E0,-1.307079315E0,9.736431670E0
2.408564969E0,1.840977907E0,9.492626190E0,-1.350150228E0,9.763301556E0
2.411071011E0,1.829013824E0,9.504590988E0,-1.376471281E0,9.776359988E0
2.413577052E0,1.805085540E0,9.509376526E0,-1.388435364E0,9.778257947E0
2.416083094E0,1.747657895E0,9.516554832E0,-1.410269856E0,9.777933578E0
2.418589136E0,1.718943954E0,9.514162064E0,-1.419841170E0,9.771898333E0
2.421095177E0,1.659123421E0,9.483055115E0,-1.393221021E0,9.727388635E0
2.423601219E0,1.616052628E0,9.471091270E0,-1.378864050E0,9.706413448E0
2.426107261E0,1.575374603E0,9.447162628E0,-1.378864050E0,9.676360521E0
2.428613302E0,1.549053550E0,9.428020477E0,-1.371685624E0,9.652391334E0
2.431119344E0,1.539482236E0,9.413662910E0,-1.376471281E0,9.637516700E0
2.433625386E0,1.553839207E0,9.416056633E0,-1.376471281E0,9.642158056E0
2.436131427E0,1.599302888E0,9.425627708E0,-1.390828133E0,9.660984956E0
2.438637469E0,1.635195136E0,9.439984322E0,-1.398006678E0,9.682024055E0
2.441143511E0,1.659123421E0,9.444769859E0,-1.386042476E0,9.689039269E0
2.443649500E0,1.733300924E0,9.451948166E0,-1.388435364E0,9.709346476E0
2.446155542E0,1.819442511E0,9.454340935E0,-1.386042476E0,9.727078046E0
2.448661584E0,1.893620014E0,9.475876808E0,-1.381256819E0,9.761450120E0
2.451167625E0,1.977667928E0,9.506983757E0,-1.388435364E0,9.809264159E0
2.453673667E0,2.044667006E0,9.526125908E0,-1.386042476E0,9.841181419E0
2.456179709E0,2.104487419E0,9.550054550E0,-1.371685624E0,9.874914210E0
2.458685750E0,2.133201361E0,9.566803932E0,-1.352542996E0,9.894627738E0
2.461191792E0,2.133201361E0,9.583553314E0,-1.340578914E0,9.909197445E0
2.463697834E0,2.133201361E0,9.593125343E0,-1.311864972E0,9.914615051E0
2.466203875E0,2.111665964E0,9.569196701E0,-1.297508121E0,9.884947444E0
2.468709917E0,2.078166485E0,9.578767776E0,-1.295115232E0,9.886803908E0
2.471215959E0,2.056631088E0,9.573982239E0,-1.295115232E0,9.877661201E0
2.473722000E0,2.006381750E0,9.566803932E0,-1.287936807E0,9.859416130E0
2.476228042E0,1.977667928E0,9.578767776E0,-1.268794179E0,9.862748157E0
2.478734084E0,1.917548299E0,9.573982239E0,-1.287936807E0,9.848700859E0
2.481240125E0,1.879263043E0,9.602696419E0,-1.307079315E0,9.871771089E0
2.483746167E0,1.833799481E0,9.590732574E0,-1.328614831E0,9.854450224E0
2.486252209E0,1.797907114E0,9.583553314E0,-1.350150228E0,9.843773146E0
2.488758250E0,1.716551185E0,9.552447319E0,-1.354935765E0,9.799573903E0
2.491264292E0,1.671087503E0,9.550054550E0,-1.362114310E0,9.790374393E0
2.493770334E0,1.620838284E0,9.562018394E0,-1.374078393E0,9.795274573E0
2.496276323E0,1.596910000E0,9.540482521E0,-1.371685624E0,9.769976957E0
2.498782365E0,1.568196177E0,9.528518677E0,-1.352542996E0,9.750963028E0
2.501288407E0,1.546660781E0,9.538089752E0,-1.340578914E0,9.755227702E0
2.503794448E0,1.534696579E0,9.528518677E0,-1.319043517E0,9.741038834E0
2.506300490E0,1.517946839E0,9.526125908E0,-1.309472203E0,9.734780679E0
2.508806532E0,1.522732496E0,9.514162064E0,-1.299900889E0,9.722537547E0
2.511312573E0,1.541875124E0,9.514162064E0,-1.261615753E0,9.720510942E0
2.513818615E0,1.565803289E0,9.504590988E0,-1.256830096E0,9.714350811E0
2.516324657E0,1.582553029E0,9.480662346E0,-1.244866014E0,9.692116590E0
2.518830698E0,1.580160260E0,9.475876808E0,-1.206580877E0,9.682199396E0
2.521336740E0,1.575374603E0,9.471091270E0,-1.197009563E0,9.675546852E0
2.523842782E0,1.575374603E0,9.480662346E0,-1.208973646E0,9.686401857E0
2.526348823E0,1.572981834E0,9.495018959E0,-1.220937729E0,9.701564092E0
2.528854865E0,1.561017632E0,9.535696983E0,-1.240080357E0,9.741873141E0
2.531360907E0,1.541875124E0,9.547661781E0,-1.266401410E0,9.753922130E0
2.533866948E0,1.517946839E0,9.523733139E0,-1.271187067E0,9.727362030E0
2.536372990E0,1.498804331E0,9.487840652E0,-1.285543919E0,9.691138108E0
2.538879032E0,1.510768414E0,9.483055115E0,-1.287936807E0,9.688629249E0
2.541385073E0,1.549053550E0,9.468698502E0,-1.309472203E0,9.683518765E0
2.543891115E0,1.572981834E0,9.461520195E0,-1.352542996E0,9.686279410E0
2.546397157E0,1.632802367E0,9.456734657E0,-1.374078393E0,9.694532757E0
2.548903198E0,1.683051586E0,9.466305733E0,-1.410269856E0,9.717636952E0
2.551409240E0,1.740479350E0,9.466305733E0,-1.424626827E0,9.729839371E0
2.553915229E0,1.769193292E0,9.483055115E0,-1.434198022E0,9.752707479E0
2.556421271E0,1.766800404E0,9.487840652E0,-1.422233939E0,9.755175718E0
2.558927313E0,1.771586061E0,9.485447884E0,-1.422233939E0,9.753716630E0
2.561433354E0,1.757229090E0,9.480662346E0,-1.422233939E0,9.746464075E0
2.563939396E0,1.738086581E0,9.466305733E0,-1.393221021E0,9.724862673E0
2.566445438E0,1.738086581E0,9.468698502E0,-1.388435364E0,9.726507546E0
2.568951479E0,1.742872238E0,9.475876808E0,-1.393221021E0,9.735035169E0
2.571457521E0,1.759621978E0,9.473484039E0,-1.393221021E0,9.735719499E0
2.573963563E0,1.757229090E0,9.483055115E0,-1.395613790E0,9.744943624E0
2.576469604E0,1.757229090E0,9.490233421E0,-1.400399446E0,9.752615192E0
2.578975646E0,1.730908036E0,9.516554832E0,-1.410269856E0,9.774953687E0
2.581481688E0,1.697408557E0,9.542876244E0,-1.410269856E0,9.794720204E0
2.583987729E0,1.644766450E0,9.554840088E0,-1.402792215E0,9.796328485E0
2.586493771E0,1.606481314E0,9.564411163E0,-1.395613790E0,9.798289696E0
2.588999813E0,1.580160260E0,9.557232857E0,-1.357328653E0,9.781612720E0
2.591505854E0,1.534696579E0,9.533304214E0,-1.304686546E0,9.743787242E0
2.594011896E0,1.486840129E0,9.499805450E0,-1.256830096E0,9.697248015E0
2.596517938E0,1.494018674E0,9.490233421E0,-1.249651670E0,9.688046835E0
2.599023979E0,1.489233017E0,9.497411728E0,-1.261615753E0,9.695891853E0
2.601529969E0,1.529910922E0,9.506983757E0,-1.275972724E0,9.713468689E0
2.604036063E0,1.565803289E0,9.506983757E0,-1.314257860E0,9.724286803E0
2.606542104E0,1.606481314E0,9.495018959E0,-1.335793257E0,9.722165956E0
2.609048094E0,1.680658817E0,9.495018959E0,-1.369292736E0,9.739351194E0
2.611554136E0,1.766800404E0,9.502198219E0,-1.376471281E0,9.762583052E0
2.614060177E0,1.824228168E0,9.514162064E0,-1.364507079E0,9.783096021E0
2.616566219E0,1.896012783E0,9.521340370E0,-1.323829174E0,9.798127913E0
2.619072261E0,1.951047778E0,9.545269012E0,-1.259222865E0,9.823664804E0
2.621578302E0,1.955833435E0,9.562018394E0,-1.177866936E0,9.830811295E0
2.624084344E0,1.941476464E0,9.571589470E0,-1.082154036E0,9.826276670E0
2.626590386E0,1.898405671E0,9.581160545E0,-9.960124493E-1,9.818076303E0
2.629096427E0,1.857727647E0,9.573982239E0,-9.409775138E-1,9.797842956E0
2.631602469E0,1.829013824E0,9.557232857E0,-9.433703423E-1,9.776294751E0
2.634108511E0,1.802692771E0,9.550054550E0,-1.005583763E0,9.770590660E0
2.636614552E0,1.795514345E0,9.535696983E0,-1.122832060E0,9.768016204E0
2.639120594E0,1.807478428E0,9.516554832E0,-1.266401410E0,9.769112891E0
2.641626636E0,1.831406593E0,9.518947601E0,-1.407876968E0,9.795230018E0
2.644132677E0,1.872084618E0,9.516554832E0,-1.510768414E0,9.815902296E0
2.646638719E0,1.896012783E0,9.504590988E0,-1.594517231E0,9.822148417E0
2.649144761E0,1.931905150E0,9.497411728E0,-1.596910000E0,9.822586655E0
2.651650802E0,1.948654890E0,9.504590988E0,-1.549053550E0,9.825175450E0
2.654156844E0,1.982453585E0,9.497411728E0,-1.460519075E0,9.811425366E0
2.656662886E0,2.044667006E0,9.509376526E0,-1.331007600E0,9.817356381E0
2.659168875E0,2.061416626E0,9.509376526E0,-1.213759303E0,9.805656126E0
2.661674917E0,2.078166485E0,9.502198219E0,-1.130010486E0,9.792214797E0
2.664180959E0,2.054238319E0,9.502198219E0,-1.098903775E0,9.783621803E0
2.666687000E0,2.042274237E0,9.511769295E0,-1.108475089E0,9.791494074E0
2.669193042E0,2.013560295E0,9.490233421E0,-1.161117196E0,9.770729174E0
2.671699084E0,1.975275040E0,9.509376526E0,-1.240080357E0,9.791207928E0
2.674205125E0,1.943869352E0,9.530911446E0,-1.331007600E0,9.817763609E0
2.676711167E0,1.934298038E0,9.533304214E0,-1.427019596E0,9.831672445E0
2.679217209E0,1.881655931E0,9.535696983E0,-1.508375525E0,9.835921041E0
2.681723250E0,1.852941990E0,9.538089752E0,-1.561017632E0,9.841002296E0
2.684229292E0,1.807478428E0,9.533304214E0,-1.584945917E0,9.831730319E0
2.686735334E0,1.795514345E0,9.540482521E0,-1.563410521E0,9.833052982E0
2.689241375E0,1.771586061E0,9.530911446E0,-1.501197100E0,9.809708604E0
2.691747417E0,1.730908036E0,9.545269012E0,-1.434198022E0,9.806381958E0
2.694253459E0,1.675873160E0,9.540482521E0,-1.381256819E0,9.784540254E0
2.696759500E0,1.654337764E0,9.535696983E0,-1.321436286E0,9.767934493E0
2.699265542E0,1.654337764E0,9.506983757E0,-1.295115232E0,9.736369809E0
2.701771584E0,1.656730533E0,9.511769295E0,-1.287936807E0,9.740497543E0
2.704277625E0,1.675873160E0,9.511769295E0,-1.273579836E0,9.741884395E0
2.706783667E0,1.697408557E0,9.506983757E0,-1.254437327E0,9.738457217E0
2.709289709E0,1.728515267E0,9.516554832E0,-1.252044439E0,9.752958330E0
2.711795750E0,1.759621978E0,9.511769295E0,-1.271187067E0,9.756328263E0
2.714301792E0,1.795514345E0,9.518947601E0,-1.280758262E0,9.771109299E0
2.716807782E0,1.812264085E0,9.545269012E0,-1.297508121E0,9.802040041E0
2.719313823E0,1.821835399E0,9.566803932E0,-1.333400369E0,9.829586880E0
2.721819865E0,1.831406593E0,9.559625626E0,-1.357328653E0,9.827656551E0
2.724325907E0,1.807478428E0,9.538089752E0,-1.357328653E0,9.802268894E0
2.726831948E0,1.793121457E0,9.516554832E0,-1.359721422E0,9.779005204E0
2.729337990E0,1.781157374E0,9.504590988E0,-1.350150228E0,9.763845404E0
2.731844032E0,1.788335800E0,9.475876808E0,-1.333400369E0,9.734903326E0
2.734350073E0,1.795514345E0,9.475876808E0,-1.338186026E0,9.736881168E0
2.736856115E0,1.855334878E0,9.478269577E0,-1.345364571E0,9.751403361E0
2.739362157E0,1.881655931E0,9.475876808E0,-1.369292736E0,9.757450124E0
2.741868198E0,1.900798440E0,9.487840652E0,-1.393221021E0,9.776155674E0
2.744374240E0,1.917548299E0,9.528518677E0,-1.393221021E0,9.818896296E0
2.746880282E0,1.907976985E0,9.547661781E0,-1.398006678E0,9.836292205E0
2.749386323E0,1.876870275E0,9.559625626E0,-1.383649707E0,9.839896882E0
2.751892365E0,1.860120535E0,9.550054550E0,-1.369292736E0,9.825403448E0
2.754398407E0,1.838585138E0,9.530911446E0,-1.352542996E0,9.800410239E0
2.756904448E0,1.812264085E0,9.502198219E0,-1.316650629E0,9.762665670E0
2.759410490E0,1.807478428E0,9.490233421E0,-1.287936807E0,9.746296213E0
2.761916532E0,1.831406593E0,9.468698502E0,-1.261615753E0,9.726354699E0
2.764422573E0,1.886441588E0,9.454340935E0,-1.254437327E0,9.721977031E0
2.766928563E0,1.922333837E0,9.447162628E0,-1.254437327E0,9.722029732E0
2.769434657E0,1.968096614E0,9.444769859E0,-1.285543919E0,9.732918634E0
2.771940698E0,2.018345833E0,9.435198784E0,-1.287936807E0,9.734242508E0
2.774446688E0,2.039881229E0,9.444769859E0,-1.299900889E0,9.749591553E0
2.776952729E0,2.061416626E0,9.454340935E0,-1.299900889E0,9.763387903E0
2.779458771E0,2.147558212E0,9.471091270E0,-1.295115232E0,9.797494557E0
2.781964813E0,2.231307030E0,9.475876808E0,-1.295115232E0,9.820809326E0
2.784470854E0,2.315055847E0,9.502198219E0,-1.316650629E0,9.868374915E0
2.786976896E0,2.346162558E0,9.497411728E0,-1.357328653E0,9.876621353E0
2.789482938E0,2.365305185E0,9.478269577E0,-1.364507079E0,9.863779314E0
2.791988979E0,2.336591244E0,9.485447884E0,-1.357328653E0,9.862845495E0
2.794495021E0,2.307877541E0,9.495018959E0,-1.335793257E0,9.862354050E0
2.797001063E0,2.269592285E0,9.509376526E0,-1.311864972E0,9.864090468E0
2.799507104E0,2.200200319E0,9.506983757E0,-1.302293777E0,9.844774791E0
2.802013146E0,2.157129526E0,9.504590988E0,-1.304686546E0,9.833242834E0
2.804519188E0,2.128415823E0,9.509376526E0,-1.342971683E0,9.836766174E0
2.807025229E0,2.056631088E0,9.492626190E0,-1.402792215E0,9.813638949E0
2.809531271E0,1.989632010E0,9.480662346E0,-1.431805253E0,9.792428725E0
2.812037313E0,1.924726725E0,9.471091270E0,-1.443769336E0,9.771929836E0
2.814543354E0,1.860120535E0,9.454340935E0,-1.431805253E0,9.741389901E0
2.817049396E0,1.809871197E0,9.447162628E0,-1.410269856E0,9.721799038E0
2.819555438E0,1.764407635E0,9.487840652E0,-1.402792215E0,9.751927017E0
2.822061479E0,1.702194214E0,9.502198219E0,-1.398006678E0,9.754161102E0
2.824567469E0,1.692622900E0,9.511769295E0,-1.402792215E0,9.762507536E0
2.827073511E0,1.699801445E0,9.516554832E0,-1.424626827E0,9.771576251E0
2.829579552E0,1.771586061E0,9.506983757E0,-1.455733418E0,9.779591868E0
2.832085594E0,1.821835399E0,9.523733139E0,-1.477268934E0,9.808307735E0
2.834591636E0,1.876870275E0,9.526125908E0,-1.496411443E0,9.823897600E0
2.837097677E0,1.931905150E0,9.528518677E0,-1.503589988E0,9.837972786E0
2.839603719E0,1.948654890E0,9.523733139E0,-1.491625786E0,9.834820602E0
2.842109761E0,1.941476464E0,9.516554832E0,-1.453340650E0,9.820710045E0
2.844615802E0,1.931905150E0,9.523733139E0,-1.407876968E0,9.819158211E0
2.847121844E0,1.946262121E0,9.533304214E0,-1.371685624E0,9.826156265E0
2.849627886E0,1.931905150E0,9.526125908E0,-1.366899967E0,9.815688862E0
2.852133927E0,1.917548299E0,9.521340370E0,-1.347757339E0,9.805578197E0
2.854639969E0,1.915155411E0,9.526125908E0,-1.364507079E0,9.812072902E0
2.857146011E0,1.879263043E0,9.518947601E0,-1.378864050E0,9.800166279E0
2.859652052E0,1.862513304E0,9.511769295E0,-1.376471281E0,9.789656997E0
2.862158094E0,1.826620936E0,9.518947601E0,-1.357328653E0,9.787198197E0
2.864664136E0,1.790728688E0,9.509376526E0,-1.328614831E0,9.767300984E0
2.867170177E0,1.769193292E0,9.490233421E0,-1.319043517E0,9.743431177E0
2.869676219E0,1.752443433E0,9.483055115E0,-1.297508121E0,9.730514869E0
2.872182261E0,1.747657895E0,9.487840652E0,-1.292722464E0,9.733681715E0
2.874688302E0,1.752443433E0,9.506983757E0,-1.314257860E0,9.756078714E0
2.877194344E0,1.766800404E0,9.511769295E0,-1.333400369E0,9.765925216E0
2.879700334E0,1.809871197E0,9.518947601E0,-1.350150228E0,9.783092702E0
2.882206375E0,1.797907114E0,9.526125908E0,-1.350150228E0,9.787872621E0
2.884712417E0,1.814656854E0,9.533304214E0,-1.369292736E0,9.800603621E0
2.887218459E0,1.814656854E0,9.540482521E0,-1.386042476E0,9.809938836E0
2.889724500E0,1.773978829E0,9.557232857E0,-1.405484200E0,9.821562330E0
2.892230542E0,1.728515267E0,9.542876244E0,-1.412662625E0,9.800503442E0
2.894736584E0,1.654337764E0,9.528518677E0,-1.405484200E0,9.772660203E0
2.897242625E0,1.580160260E0,9.502198219E0,-1.386042476E0,9.731895560E0
2.899748667E0,1.515554070E0,9.492626190E0,-1.364507079E0,9.709208809E0
2.902254709E0,1.525125384E0,9.497411728E0,-1.347757339E0,9.713047247E0
2.904760750E0,1.558624864E0,9.499805450E0,-1.366899967E0,9.723375473E0
2.907266792E0,1.628016710E0,9.490233421E0,-1.400399446E0,9.730163792E0
2.909772834E0,1.683051586E0,9.495018959E0,-1.436590910E0,9.749453375E0
2.912278875E0,1.742872238E0,9.490233421E0,-1.467697620E0,9.759931882E0
2.914784917E0,1.831406593E0,9.490233421E0,-1.491625786E0,9.779750916E0
2.917290959E0,1.891227245E0,9.499805450E0,-1.503589988E0,9.802235813E0
2.919797000E0,1.939083695E0,9.497411728E0,-1.503589988E0,9.809263885E0
2.922303042E0,1.951047778E0,9.506983757E0,-1.498804331E0,9.820170162E0
2.924809084E0,1.941476464E0,9.511769295E0,-1.474876046E0,9.819284359E0
2.927315125E0,1.915155411E0,9.514162064E0,-1.438983679E0,9.811104629E0
2.929821167E0,1.888834357E0,9.509376526E0,-1.378864050E0,9.792711739E0
2.932327209E0,1.874477386E0,9.499805450E0,-1.328614831E0,9.773698708E0
2.934833250E0,1.876870275E0,9.523733139E0,-1.307079315E0,9.794518430E0
2.937339240E0,1.896012783E0,9.540482521E0,-1.314257860E0,9.815444204E0
2.939845282E0,1.907976985E0,9.521340370E0,-1.338186026E0,9.802399730E0
2.942351323E0,1.884048700E0,9.528518677E0,-1.376471281E0,9.810044896E0
2.944857365E0,1.852941990E0,9.542876244E0,-1.412662625E0,9.823212138E0
2.947363407E0,1.817049742E0,9.521340370E0,-1.431805253E0,9.798349784E0
2.949869448E0,1.814656854E0,9.521340370E0,-1.465304732E0,9.802857741E0
2.952375490E0,1.802692771E0,9.523733139E0,-1.482054472E0,9.805492317E0
2.954881532E0,1.790728688E0,9.514162064E0,-1.479661703E0,9.793640169E0
2.957387573E0,1.785943031E0,9.533304214E0,-1.465304732E0,9.809209943E0
2.959893615E0,1.797907114E0,9.530911446E0,-1.472483277E0,9.810145258E0
2.962399657E0,1.776371717E0,9.533304214E0,-1.453340650E0,9.805691448E0
2.964905698E0,1.790728688E0,9.538089752E0,-1.429412484E0,9.809438588E0
2.967411740E0,1.809871197E0,9.540482521E0,-1.405484200E0,9.811820744E0
2.969917782E0,1.819442511E0,9.545269012E0,-1.388435364E0,9.815818067E0
2.972423823E0,1.836192250E0,9.540482521E0,-1.366899967E0,9.811260074E0
2.974929865E0,1.864906192E0,9.552447319E0,-1.371685624E0,9.828969750E0
2.977435907E0,1.896012783E0,9.559625626E0,-1.400399446E0,9.845934450E0
2.979941948E0,1.898405671E0,9.552447319E0,-1.434198022E0,9.844293669E0
2.982447990E0,1.900798440E0,9.557232857E0,-1.453340650E0,9.852204506E0
2.984954032E0,1.905584097E0,9.557232857E0,-1.462911963E0,9.854545248E0
2.987460073E0,1.907976985E0,9.550054550E0,-1.477268934E0,9.850189927E0
2.989966115E0,1.891227245E0,9.538089752E0,-1.467697620E0,9.833922560E0
2.992472104E0,1.879263043E0,9.530911446E0,-1.450947881E0,9.822176557E0
2.994978146E0,1.864906192E0,9.528518677E0,-1.438983679E0,9.815356199E0
2.997484188E0,1.893620014E0,9.511769295E0,-1.429412484E0,9.803202126E0
2.999990229E0,1.915155411E0,9.511769295E0,-1.431805253E0,9.807733767E0
3.002496271E0,1.907976985E0,9.523733139E0,-1.446162224E0,9.820043496E0
3.005002313E0,1.924726725E0,9.530911446E0,-1.429412484E0,9.827821020E0
3.007508354E0,1.917548299E0,9.538089752E0,-1.400399446E0,9.829204760E0
3.010014396E0,1.919941068E0,9.523733139E0,-1.398006678E0,9.815400617E0
3.012520438E0,1.910369754E0,9.540482521E0,-1.412662625E0,9.831883595E0
3.015026479E0,1.884048700E0,9.538089752E0,-1.390828133E0,9.821364392E0
3.017532521E0,1.855334878E0,9.535696983E0,-1.369292736E0,9.810542649E0
3.020038563E0,1.819442511E0,9.521340370E0,-1.342971683E0,9.786207970E0
3.022544604E0,1.783550143E0,9.545269012E0,-1.350150228E0,9.803882765E0
3.025050646E0,1.771586061E0,9.528518677E0,-1.383649707E0,9.790080278E0
3.027556688E0,1.773978829E0,9.542876244E0,-1.419841170E0,9.809660383E0
3.030062729E0,1.769193292E0,9.540482521E0,-1.434198022E0,9.808556245E0
3.032568771E0,1.754836321E0,9.516554832E0,-1.441376567E0,9.783753513E0
3.035074813E0,1.752443433E0,9.483055115E0,-1.434198022E0,9.749682880E0
3.037580854E0,1.750050664E0,9.485447884E0,-1.431805253E0,9.751228905E0
3.040086896E0,1.762014747E0,9.502198219E0,-1.477268934E0,9.776440583E0
3.042592938E0,1.785943031E0,9.528518677E0,-1.508375525E0,9.811088493E0
3.045098979E0,1.793121457E0,9.542876244E0,-1.510768414E0,9.826708134E0
3.047605021E0,1.778764486E0,9.516554832E0,-1.489233017E0,9.795235268E0
3.050111063E0,1.735693693E0,9.509376526E0,-1.446162224E0,9.774060553E0
3.052617052E0,1.718943954E0,9.514162064E0,-1.431805253E0,9.773643863E0
3.055123094E0,1.716551185E0,9.509376526E0,-1.450947881E0,9.771388828E0
3.057629136E0,1.718943954E0,9.499805450E0,-1.436590910E0,9.760372193E0
3.060135177E0,1.706979871E0,9.511769295E0,-1.419841170E0,9.767470724E0
3.062641219E0,1.683051586E0,9.504590988E0,-1.419841170E0,9.756324177E0
3.065147261E0,1.690230131E0,9.495018959E0,-1.386042476E0,9.743376041E0
3.067653302E0,1.711765528E0,9.483055115E0,-1.381256819E0,9.734800765E0
3.070159344E0,1.752443433E0,9.473484039E0,-1.400399446E0,9.735454609E0
3.072665386E0,1.807478428E0,9.502198219E0,-1.405484200E0,9.774156491E0
3.075171427E0,1.836192250E0,9.530911446E0,-1.424626827E0,9.810170058E0
3.077677469E0,1.824228168E0,9.550054550E0,-1.407876968E0,9.824126825E0
3.080183511E0,1.812264085E0,9.542876244E0,-1.388435364E0,9.812162905E0
3.082689552E0,1.785943031E0,9.554840088E0,-1.402792215E0,9.821017647E0
3.085195594E0,1.785943031E0,9.547661781E0,-1.405484200E0,9.814419180E0
3.087701636E0,1.771586061E0,9.547661781E0,-1.410269856E0,9.812503438E0
3.090207677E0,1.769193292E0,9.552447319E0,-1.410269856E0,9.816728363E0
3.092713719E0,1.740479350E0,9.552447319E0,-1.393221021E0,9.809158117E0
3.095219761E0,1.718943954E0,9.535696983E0,-1.390828133E0,9.788702068E0
3.097725802E0,1.723729610E0,9.514162064E0,-1.410269856E0,9.771355311E0
3.100231844E0,1.730908036E0,9.518947601E0,-1.431805253E0,9.780412688E0
3.102737886E0,1.745265007E0,9.530911446E0,-1.434198022E0,9.794955176E0
3.105243927E0,1.745265007E0,9.518947601E0,-1.427019596E0,9.782264478E0
3.107749969E0,1.764407635E0,9.509376526E0,-1.422233939E0,9.775690543E0
3.110255959E0,1.793121457E0,9.528518677E0,-1.422233939E0,9.799525606E0
3.112762000E0,1.840977907E0,9.528518677E0,-1.419841170E0,9.808048571E0
3.115268042E0,1.874477386E0,9.526125908E0,-1.427019596E0,9.813109865E0
3.117774084E0,1.891227245E0,9.533304214E0,-1.415055513E0,9.821558524E0
3.120280125E0,1.915155411E0,9.538089752E0,-1.422233939E0,9.831872952E0
3.122786167E0,1.934298038E0,9.545269012E0,-1.422233939E0,9.842581917E0
3.125292209E0,1.931905150E0,9.557232857E0,-1.424626827E0,9.854061040E0
3.127798250E0,1.946262121E0,9.571589470E0,-1.407876968E0,9.868403051E0
3.130304292E0,1.924726725E0,9.583553314E0,-1.417448282E0,9.877156814E0
3.132810334E0,1.903191328E0,9.590732574E0,-1.422233939E0,9.880639550E0
3.135316375E0,1.855334878E0,9.571589470E0,-1.410269856E0,9.851215842E0
3.137822417E0,1.805085540E0,9.557232857E0,-1.410269856E0,9.827914059E0
3.140328459E0,1.766800404E0,9.550054550E0,-1.381256819E0,9.809841792E0
3.142834500E0,1.728515267E0,9.526125908E0,-1.386042476E0,9.780386168E0
3.145340542E0,1.702194214E0,9.523733139E0,-1.393221021E0,9.774457676E0
3.147846584E0,1.690230131E0,9.516554832E0,-1.410269856E0,9.767832658E0
3.150352625E0,1.685444474E0,9.514162064E0,-1.410269856E0,9.764674286E0
3.152858667E0,1.683051586E0,9.530911446E0,-1.415055513E0,9.781273830E0
3.155364709E0,1.690230131E0,9.526125908E0,-1.415055513E0,9.777849192E0
3.157870750E0,1.702194214E0,9.545269012E0,-1.415055513E0,9.798571721E0
3.160376792E0,1.716551185E0,9.557232857E0,-1.400399446E0,9.810625182E0
3.162882834E0,1.714158297E0,9.554840088E0,-1.386042476E0,9.805836095E0
3.165388875E0,1.735693693E0,9.562018394E0,-1.386042476E0,9.816615614E0
3.167894917E0,1.709372640E0,9.569196701E0,-1.371685624E0,9.816975185E0
3.170400959E0,1.673480392E0,9.578767776E0,-1.362114310E0,9.818792397E0
3.172907000E0,1.647159338E0,9.597910881E0,-1.345364571E0,9.830718844E0
3.175412990E0,1.644766450E0,9.593125343E0,-1.369292736E0,9.828950764E0
3.177919032E0,1.618445396E0,9.605089188E0,-1.376471281E0,9.837264711E0
3.180425073E0,1.565803289E0,9.583553314E0,-1.369292736E0,9.806691423E0
3.182931115E0,1.513161182E0,9.562018394E0,-1.371685624E0,9.777697786E0
3.185437157E0,1.458126307E0,9.550054550E0,-1.362114310E0,9.756281547E0
3.187943198E0,1.400399446E0,9.552447319E0,-1.345364571E0,9.747839464E0
3.190449240E0,1.359721422E0,9.530911446E0,-1.333400369E0,9.719314373E0
3.192955282E0,1.333400369E0,9.514162064E0,-1.323829174E0,9.697925551E0
3.195461323E0,1.319043517E0,9.511769295E0,-1.326221943E0,9.693941178E0
3.197967365E0,1.309472203E0,9.523733139E0,-1.311864972E0,9.702432688E0
3.200473407E0,1.321436286E0,9.518947601E0,-1.297508121E0,9.697426701E0
3.202979448E0,1.333400369E0,9.523733139E0,-1.290329576E0,9.702803711E0
3.205485490E0,1.345364571E0,9.554840088E0,-1.304686546E0,9.736897962E0
3.207991532E0,1.316650629E0,9.552447319E0,-1.319043517E0,9.732558475E0
3.210497573E0,1.309472203E0,9.562018394E0,-1.311864972E0,9.740015551E0
3.213003615E0,1.302293777E0,9.557232857E0,-1.309472203E0,9.734032382E0
3.215509657E0,1.256830096E0,9.542876244E0,-1.314257860E0,9.714596369E0
3.218015698E0,1.218544960E0,9.545269012E0,-1.302293777E0,9.710457323E0
3.220521740E0,1.189831018E0,9.535696983E0,-1.316650629E0,9.699421822E0
3.223027782E0,1.194616675E0,9.533304214E0,-1.331007600E0,9.699617491E0
3.225533823E0,1.185045362E0,9.526125908E0,-1.342971683E0,9.693037721E0
3.228039865E0,1.201795220E0,9.514162064E0,-1.331007600E0,9.681692660E0
3.230545907E0,1.218544960E0,9.526125908E0,-1.364507079E0,9.700196194E0
3.233051948E0,1.242473125E0,9.516554832E0,-1.402792215E0,9.699297982E0
3.235557938E0,1.297508121E0,9.504590988E0,-1.438983679E0,9.700074804E0
3.238063979E0,1.335793257E0,9.518947601E0,-1.438983679E0,9.719330280E0
3.240570021E0,1.383649707E0,9.545269012E0,-1.434198022E0,9.751080504E0
3.243076063E0,1.460519075E0,9.559625626E0,-1.431805253E0,9.775971786E0
3.245582104E0,1.491625786E0,9.557232857E0,-1.438983679E0,9.779382465E0
3.248088146E0,1.553839207E0,9.564411163E0,-1.438983679E0,9.796073255E0
3.250594188E0,1.594517231E0,9.583553314E0,-1.434198022E0,9.820585690E0
3.253100229E0,1.620838284E0,9.583553314E0,-1.429412484E0,9.824196197E0
3.255606271E0,1.651944876E0,9.585947037E0,-1.422233939E0,9.830668942E0
3.258112313E0,1.671087503E0,9.583553314E0,-1.410269856E0,9.829846827E0
3.260618354E0,1.663909078E0,9.562018394E0,-1.390828133E0,9.804855536E0
3.263124396E0,1.647159338E0,9.571589470E0,-1.393221021E0,9.811703403E0
3.265630438E0,1.637588024E0,9.569196701E0,-1.383649707E0,9.806411502E0
3.268136479E0,1.637588024E0,9.581160545E0,-1.376471281E0,9.817077219E0
3.270642521E0,1.632802367E0,9.600303650E0,-1.376471281E0,9.834965528E0
3.273148563E0,1.611266971E0,9.571589470E0,-1.371685624E0,9.802705121E0
3.275654604E0,1.608874083E0,9.547661781E0,-1.362114310E0,9.777610991E0
3.278160646E0,1.611266971E0,9.557232857E0,-1.354935765E0,9.786354380E0
3.280666688E0,1.608874083E0,9.538089752E0,-1.369292736E0,9.769267861E0
3.283172729E0,1.596910000E0,9.547661781E0,-1.390828133E0,9.779691709E0
3.285678771E0,1.584945917E0,9.562018394E0,-1.383649707E0,9.790747461E0
3.288184813E0,1.563410521E0,9.573982239E0,-1.369292736E0,9.796956209E0
3.290690854E0,1.549053550E0,9.557232857E0,-1.369292736E0,9.778304013E0
3.293196896E0,1.517946839E0,9.545269012E0,-1.366899967E0,9.761390201E0
3.295702938E0,1.482054472E0,9.538089752E0,-1.388435364E0,9.751891834E0
3.298208927E0,1.474876046E0,9.564411163E0,-1.415055513E0,9.780368212E0
3.300714969E0,1.470090389E0,9.564411163E0,-1.427019596E0,9.781385974E0
3.303221011E0,1.458126307E0,9.564411163E0,-1.402792215E0,9.776089158E0
3.305727052E0,1.417448282E0,9.562018394E0,-1.400399446E0,9.767419005E0
3.308233094E0,1.374078393E0,9.538089752E0,-1.405484200E0,9.738512894E0
3.310739136E0,1.374078393E0,9.547661781E0,-1.400399446E0,9.747156279E0
3.313245177E0,1.371685624E0,9.554840088E0,-1.410269856E0,9.755273016E0
3.315751219E0,1.374078393E0,9.571589470E0,-1.424626827E0,9.774097299E0
3.318257261E0,1.398006678E0,9.564411163E0,-1.431805253E0,9.771512158E0
3.320763302E0,1.424626827E0,9.566803932E0,-1.407876968E0,9.774222047E0
3.323269344E0,1.419841170E0,9.585947037E0,-1.402792215E0,9.791534892E0
3.325775386E0,1.402792215E0,9.597910881E0,-1.398006678E0,9.800109283E0
3.328281427E0,1.390828133E0,9.595518112E0,-1.383649707E0,9.794021505E0
3.330787469E0,1.395613790E0,9.578767776E0,-1.386042476E0,9.778631996E0
3.333293511E0,1.395613790E0,9.573982239E0,-1.405484200E0,9.776720288E0
3.335799552E0,1.381256819E0,9.593125343E0,-1.412662625E0,9.794464761E0
3.338305594E0,1.395613790E0,9.585947037E0,-1.388435364E0,9.786003842E0
3.340811636E0,1.388435364E0,9.576375008E0,-1.371685624E0,9.773240634E0
3.343317677E0,1.352542996E0,9.573982239E0,-1.393221021E0,9.768908500E0
3.345823719E0,1.333400369E0,9.578767776E0,-1.400399446E0,9.771994027E0
3.348329761E0,1.345364571E0,9.562018394E0,-1.405484200E0,9.757949961E0
3.350835802E0,1.342971683E0,9.554840088E0,-1.412662625E0,9.751623339E0
3.353341844E0,1.326221943E0,9.566803932E0,-1.405484200E0,9.760019875E0
3.355847886E0,1.302293777E0,9.583553314E0,-1.412662625E0,9.774255926E0
3.358353927E0,1.309472203E0,9.585947037E0,-1.424626827E0,9.779297502E0
3.360859969E0,1.331007600E0,9.578767776E0,-1.436590910E0,9.776920108E0
3.363366011E0,1.333400369E0,9.583553314E0,-1.427019596E0,9.780533503E0
3.365872000E0,1.345364571E0,9.564411163E0,-1.427019596E0,9.763419056E0
3.368378042E0,1.371685624E0,9.545269012E0,-1.422233939E0,9.747637219E0
3.370884084E0,1.405484200E0,9.557232857E0,-1.410269856E0,9.762425251E0
3.373390125E0,1.427019596E0,9.559625626E0,-1.431805253E0,9.771023146E0
3.375896167E0,1.458126307E0,9.569196701E0,-1.453340650E0,9.788148797E0
3.378402209E0,1.498804331E0,9.578767776E0,-1.467697620E0,9.805781093E0
3.380908250E0,1.513161182E0,9.585947037E0,-1.448554993E0,9.812153124E0
3.383414292E0,1.513161182E0,9.573982239E0,-1.441376567E0,9.799406058E0
3.385920334E0,1.498804331E0,9.576375008E0,-1.412662625E0,9.795355451E0
3.388426375E0,1.484447360E0,9.581160545E0,-1.383649707E0,9.793707565E0
3.390932417E0,1.477268934E0,9.588339806E0,-1.366899967E0,9.797295507E0
3.393438459E0,1.462911963E0,9.583553314E0,-1.342971683E0,9.787143530E0
3.395944500E0,1.424626827E0,9.569196701E0,-1.340578914E0,9.767099822E0
3.398450542E0,1.419841170E0,9.547661781E0,-1.331007600E0,9.743991773E0
3.400956584E0,1.395613790E0,9.545269012E0,-1.333400369E0,9.738472925E0
3.403462625E0,1.376471281E0,9.542876244E0,-1.333400369E0,9.733402115E0
3.405968667E0,1.342971683E0,9.552447319E0,-1.345364571E0,9.739755056E0
3.408474709E0,1.309472203E0,9.562018394E0,-1.354935765E0,9.745910125E0
3.410980750E0,1.302293777E0,9.566803932E0,-1.359721422E0,9.750310195E0
3.413486792E0,1.254437327E0,9.576375008E0,-1.369292736E0,9.754769802E0
3.415992834E0,1.228116274E0,9.588339806E0,-1.378864050E0,9.764517186E0
3.418498875E0,1.192223907E0,9.578767776E0,-1.390828133E0,9.752363450E0
3.421004917E0,1.156331539E0,9.571589470E0,-1.405484200E0,9.743090549E0
3.423510959E0,1.125224829E0,9.578767776E0,-1.402792215E0,9.746114561E0
3.426016948E0,1.118046403E0,9.571589470E0,-1.402792215E0,9.738232835E0
3.428522990E0,1.110867858E0,9.576375008E0,-1.422233939E0,9.744933815E0
3.431029032E0,1.130010486E0,9.578767776E0,-1.427019596E0,9.750184652E0
3.433535073E0,1.108475089E0,9.569196701E0,-1.431805253E0,9.739009642E0
3.436041115E0,1.113260746E0,9.588339806E0,-1.446162224E0,9.760481284E0
3.438547157E0,1.118046403E0,9.585947037E0,-1.450947881E0,9.759388203E0
3.441053198E0,1.125224829E0,9.578767776E0,-1.458126307E0,9.754232689E0
3.443559240E0,1.130010486E0,9.571589470E0,-1.460519075E0,9.748095437E0
3.446065282E0,1.132403374E0,9.566803932E0,-1.479661703E0,9.746562144E0
3.448571323E0,1.161117196E0,9.571589470E0,-1.477268934E0,9.754272993E0
3.451077365E0,1.192223907E0,9.583553314E0,-1.472483277E0,9.769037771E0
3.453583407E0,1.242473125E0,9.583553314E0,-1.462911963E0,9.773860292E0
3.456089448E0,1.259222865E0,9.590732574E0,-1.455733418E0,9.781970830E0
3.458595490E0,1.304686546E0,9.571589470E0,-1.434198022E0,9.765984637E0
3.461101532E0,1.350150228E0,9.562018394E0,-1.438983679E0,9.763491970E0
3.463607573E0,1.378864050E0,9.547661781E0,-1.429412484E0,9.752042433E0
3.466113615E0,1.434198022E0,9.540482521E0,-1.417448282E0,9.751250706E0
3.468619657E0,1.465304732E0,9.559625626E0,-1.395613790E0,9.771453214E0
3.471125698E0,1.513161182E0,9.578767776E0,-1.390828133E0,9.796777622E0
3.473631740E0,1.541875124E0,9.595518112E0,-1.381256819E0,9.816273078E0
3.476137782E0,1.534696579E0,9.595518112E0,-1.364507079E0,9.812804951E0
3.478643823E0,1.522732496E0,9.612267494E0,-1.335793257E0,9.823377437E0
3.481149865E0,1.501197100E0,9.617053032E0,-1.311864972E0,9.821521850E0
3.483655854E0,1.474876046E0,9.607481956E0,-1.292722464E0,9.805615751E0
3.486161948E0,1.438983679E0,9.578767776E0,-1.283151150E0,9.770872173E0
3.488667990E0,1.422233939E0,9.562018394E0,-1.297508121E0,9.753895246E0
3.491173979E0,1.441376567E0,9.557232857E0,-1.311864972E0,9.753935410E0
3.493680021E0,1.474876046E0,9.559625626E0,-1.359721422E0,9.767832093E0
3.496186063E0,1.489233017E0,9.564411163E0,-1.400399446E0,9.780434269E0
3.498692104E0,1.549053550E0,9.573982239E0,-1.441376567E0,9.805012454E0
3.501198146E0,1.608874083E0,9.581160545E0,-1.467697620E0,9.825540673E0
3.503704188E0,1.644766450E0,9.573982239E0,-1.486840129E0,9.827364151E0
3.506210229E0,1.683051586E0,9.573982239E0,-1.484447360E0,9.833482726E0
3.508716271E0,1.692622900E0,9.576375008E0,-1.496411443E0,9.839267136E0
3.511222313E0,1.678265929E0,9.576375008E0,-1.484447360E0,9.834994600E0
3.513728354E0,1.654337764E0,9.569196701E0,-1.455733418E0,9.819649623E0
3.516234396E0,1.647159338E0,9.564411163E0,-1.436590910E0,9.810957559E0
3.518740438E0,1.637588024E0,9.564411163E0,-1.436590910E0,9.809355171E0
3.521246479E0,1.606481314E0,9.552447319E0,-1.431805253E0,9.791838350E0
3.523752521E0,1.565803289E0,9.578767776E0,-1.431805253E0,9.810942785E0
3.526258563E0,1.539482236E0,9.585947037E0,-1.419841170E0,9.812050504E0
3.528764604E0,1.505982757E0,9.578767776E0,-1.434198022E0,9.801923288E0
3.531270646E0,1.501197100E0,9.576375008E0,-1.450947881E0,9.801316277E0
3.533776688E0,1.482054472E0,9.571589470E0,-1.446162224E0,9.793017697E0
3.536282729E0,1.438983679E0,9.566803932E0,-1.441376567E0,9.781205340E0
3.538788771E0,1.422233939E0,9.573982239E0,-1.443769336E0,9.786130756E0
3.541294813E0,1.378864050E0,9.564411163E0,-1.438983679E0,9.769846519E0
3.543800854E0,1.369292736E0,9.573982239E0,-1.431805253E0,9.776817723E0
3.546306896E0,1.340578914E0,9.573982239E0,-1.419841170E0,9.771091888E0
3.548812938E0,1.350150228E0,9.588339806E0,-1.419841170E0,9.786476118E0
3.551318979E0,1.345364571E0,9.600303650E0,-1.412662625E0,9.796502013E0
3.553825021E0,1.335793257E0,9.609874725E0,-1.388435364E0,9.801111601E0
3.556331011E0,1.326221943E0,9.602696419E0,-1.393221021E0,9.793452301E0
3.558837052E0,1.331007600E0,9.588339806E0,-1.376471281E0,9.777653842E0
3.561343094E0,1.326221943E0,9.562018394E0,-1.378864050E0,9.751529443E0
3.563849136E0,1.307079315E0,9.573982239E0,-1.376471281E0,9.760341461E0
3.566355177E0,1.321436286E0,9.573982239E0,-1.378864050E0,9.762612142E0
3.568861219E0,1.304686546E0,9.573982239E0,-1.381256819E0,9.760697377E0
3.571367261E0,1.302293777E0,9.562018394E0,-1.381256819E0,9.748642739E0
3.573873302E0,1.307079315E0,9.573982239E0,-1.383649707E0,9.761356399E0
3.576379344E0,1.314257860E0,9.573982239E0,-1.395613790E0,9.764023120E0
3.578885386E0,1.295115232E0,9.557232857E0,-1.402792215E0,9.746068404E0
3.581391427E0,1.302293777E0,9.564411163E0,-1.410269856E0,9.755141775E0
3.583897469E0,1.311864972E0,9.576375008E0,-1.431805253E0,9.771285191E0
3.586403511E0,1.309472203E0,9.595518112E0,-1.438983679E0,9.790779301E0
3.588909552E0,1.304686546E0,9.607481956E0,-1.450947881E0,9.803630260E0
3.591415594E0,1.280758262E0,9.607481956E0,-1.427019596E0,9.796960559E0
3.593921636E0,1.275972724E0,9.605089188E0,-1.402792215E0,9.790488787E0
3.596427677E0,1.264008522E0,9.569196701E0,-1.383649707E0,9.750986081E0
3.598933719E0,1.256830096E0,9.559625626E0,-1.364507079E0,9.737964036E0
3.601439761E0,1.278365493E0,9.573982239E0,-1.357328653E0,9.753855408E0
3.603945802E0,1.323829174E0,9.562018394E0,-1.347757339E0,9.746854329E0
3.606451844E0,1.371685624E0,9.559625626E0,-1.357328653E0,9.752451211E0
3.608957886E0,1.417448282E0,9.571589470E0,-1.366899967E0,9.772046875E0
3.611463927E0,1.450947881E0,9.590732574E0,-1.393221021E0,9.799411507E0
3.613969969E0,1.503589988E0,9.585947037E0,-1.402792215E0,9.804029245E0
3.616476011E0,1.529910922E0,9.593125343E0,-1.390828133E0,9.813413482E0
3.618982052E0,1.529910922E0,9.588339806E0,-1.398006678E0,9.809755875E0
3.621488094E0,1.513161182E0,9.576375008E0,-1.386042476E0,9.793759686E0
3.623994136E0,1.501197100E0,9.571589470E0,-1.383649707E0,9.786899623E0
3.626500177E0,1.446162224E0,9.564411163E0,-1.378864050E0,9.770906414E0
3.629006219E0,1.446162224E0,9.583553314E0,-1.376471281E0,9.789308070E0
3.631512209E0,1.436590910E0,9.588339806E0,-1.386042476E0,9.793935236E0
3.634018250E0,1.424626827E0,9.590732574E0,-1.393221021E0,9.795548873E0
3.636524292E0,1.422233939E0,9.595518112E0,-1.407876968E0,9.801981166E0
3.639030334E0,1.419841170E0,9.583553314E0,-1.422233939E0,9.791996347E0
3.641536375E0,1.415055513E0,9.562018394E0,-1.419841170E0,9.769878547E0
3.644042417E0,1.424626827E0,9.554840088E0,-1.427019596E0,9.765291375E0
3.646548459E0,1.417448282E0,9.557232857E0,-1.429412484E0,9.766938085E0
3.649054500E0,1.422233939E0,9.557232857E0,-1.431805253E0,9.767984211E0
3.651560542E0,1.429412484E0,9.562018394E0,-1.436590910E0,9.774416058E0
3.654066584E0,1.458126307E0,9.552447319E0,-1.427019596E0,9.767894708E0
3.656572625E0,1.467697620E0,9.550054550E0,-1.419841170E0,9.765942206E0
3.659078667E0,1.494018674E0,9.550054550E0,-1.415055513E0,9.769238241E0
3.661584709E0,1.505982757E0,9.564411163E0,-1.402792215E0,9.783341503E0
3.664090750E0,1.529910922E0,9.569196701E0,-1.386042476E0,9.789344548E0
3.666596792E0,1.532303810E0,9.573982239E0,-1.381256819E0,9.793720502E0
3.669102834E0,1.539482236E0,9.585947037E0,-1.378864050E0,9.806204781E0
3.671608875E0,1.515554070E0,9.566803932E0,-1.374078393E0,9.783084025E0
3.674114917E0,1.513161182E0,9.576375008E0,-1.388435364E0,9.794098622E0
3.676620959E0,1.501197100E0,9.588339806E0,-1.395613790E0,9.804977859E0
3.679127000E0,1.494018674E0,9.578767776E0,-1.390828133E0,9.793839227E0
3.681633042E0,1.477268934E0,9.595518112E0,-1.393221021E0,9.808025090E0
3.684139084E0,1.438983679E0,9.609874725E0,-1.405484200E0,9.818133840E0
3.686645125E0,1.395613790E0,9.609874725E0,-1.412662625E0,9.812902006E0
3.689151167E0,1.364507079E0,9.609874725E0,-1.405484200E0,9.807494973E0
3.691657209E0,1.326221943E0,9.571589470E0,-1.412662625E0,9.765746531E0
3.694163198E0,1.307079315E0,9.566803932E0,-1.417448282E0,9.759167662E0
3.696669240E0,1.266401410E0,9.569196701E0,-1.388435364E0,9.751976763E0
3.699175282E0,1.256830096E0,9.566803932E0,-1.383649707E0,9.747709776E0
3.701681323E0,1.252044439E0,9.583553314E0,-1.378864050E0,9.762856932E0
3.704187365E0,1.240080357E0,9.573982239E0,-1.378864050E0,9.751933207E0
3.706693407E0,1.244866014E0,9.557232857E0,-1.386042476E0,9.737119955E0
3.709199448E0,1.278365493E0,9.566803932E0,-1.405484200E0,9.753632228E0
3.711705490E0,1.287936807E0,9.566803932E0,-1.417448282E0,9.756622281E0
3.714211532E0,1.333400369E0,9.564411163E0,-1.429412484E0,9.762127713E0
3.716717573E0,1.335793257E0,9.564411163E0,-1.422233939E0,9.761406349E0
3.719223615E0,1.357328653E0,9.554840088E0,-1.400399446E0,9.751842328E0
3.721729657E0,1.359721422E0,9.552447319E0,-1.431805253E0,9.754391750E0
3.724235698E0,1.381256819E0,9.559625626E0,-1.417448282E0,9.762349724E0
3.726741740E0,1.393221021E0,9.554840088E0,-1.390828133E0,9.755533651E0
3.729247782E0,1.398006678E0,9.573982239E0,-1.395613790E0,9.775648133E0
3.731753823E0,1.410269856E0,9.557232857E0,-1.395613790E0,9.761009107E0
3.734259865E0,1.405484200E0,9.559625626E0,-1.378864050E0,9.760281451E0
3.736765907E0,1.415055513E0,9.576375008E0,-1.381256819E0,9.778405330E0
3.739271948E0,1.427019596E0,9.590732574E0,-1.381256819E0,9.794202706E0
3.741777990E0,1.427019596E0,9.569196701E0,-1.366899967E0,9.771096456E0
3.744284032E0,1.424626827E0,9.569196701E0,-1.364507079E0,9.770412820E0
3.746790073E0,1.427019596E0,9.569196701E0,-1.366899967E0,9.771096456E0
3.749296115E0,1.431805253E0,9.573982239E0,-1.352542996E0,9.774485907E0
3.751802157E0,1.427019596E0,9.573982239E0,-1.350150228E0,9.773455196E0
3.754308198E0,1.412662625E0,9.557232857E0,-1.340578914E0,9.753638675E0
3.756814240E0,1.410269856E0,9.545269012E0,-1.323829174E0,9.739278478E0
3.759320282E0,1.415055513E0,9.535696983E0,-1.328614831E0,9.731244341E0
3.761826323E0,1.450947881E0,9.552447319E0,-1.338186026E0,9.754242225E0
3.764332365E0,1.474876046E0,9.550054550E0,-1.335793257E0,9.755159911E0
3.766838407E0,1.513161182E0,9.552447319E0,-1.316650629E0,9.760762031E0
3.769344396E0,1.553839207E0,9.547661781E0,-1.345364571E0,9.766384572E0
3.771850438E0,1.608874083E0,9.566803932E0,-1.354935765E0,9.795308276E0
3.774356479E0,1.642373681E0,9.581160545E0,-1.364507079E0,9.816206409E0
3.776862521E0,1.671087503E0,9.571589470E0,-1.376471281E0,9.813385329E0
3.779368563E0,1.671087503E0,9.569196701E0,-1.371685624E0,9.810381257E0
3.781874604E0,1.666301847E0,9.576375008E0,-1.333400369E0,9.811293323E0
3.784380646E0,1.647159338E0,9.547661781E0,-1.333400369E0,9.780027399E0
3.786886688E0,1.637588024E0,9.547661781E0,-1.378864050E0,9.784723098E0
3.789392729E0,1.642373681E0,9.571589470E0,-1.407876968E0,9.812993114E0
3.791898771E0,1.618445396E0,9.595518112E0,-1.434198022E0,9.836170866E0
3.794404813E0,1.575374603E0,9.617053032E0,-1.436590910E0,9.850548594E0
3.796910854E0,1.525125384E0,9.609874725E0,-1.412662625E0,9.832157208E0
3.799416896E0,1.467697620E0,9.588339806E0,-1.376471281E0,9.797197034E0
3.801922938E0,1.410269856E0,9.578767776E0,-1.362114310E0,9.777372274E0
3.804428979E0,1.388435364E0,9.578767776E0,-1.369292736E0,9.775249740E0
3.806935021E0,1.369292736E0,9.573982239E0,-1.383649707E0,9.769881525E0
3.809441063E0,1.342971683E0,9.569196701E0,-1.357328653E0,9.757839900E0
3.811947104E0,1.309472203E0,9.573982239E0,-1.333400369E0,9.754681435E0
3.814453146E0,1.261615753E0,9.552447319E0,-1.304686546E0,9.723329218E0
3.816959188E0,1.247258782E0,9.542876244E0,-1.323829174E0,9.714662380E0
3.819465229E0,1.302293777E0,9.545269012E0,-1.347757339E0,9.727516613E0
3.821971271E0,1.328614831E0,9.569196701E0,-1.364507079E0,9.756875650E0
3.824477313E0,1.328614831E0,9.590732574E0,-1.350150228E0,9.776005029E0
3.826983354E0,1.350150228E0,9.593125343E0,-1.311864972E0,9.776090691E0
3.829489396E0,1.362114310E0,9.571589470E0,-1.314257860E0,9.756943891E0
3.831995438E0,1.388435364E0,9.573982239E0,-1.314257860E0,9.762999662E0
3.834501479E0,1.398006678E0,9.550054550E0,-1.314257860E0,9.740905415E0
3.837007521E0,1.434198022E0,9.542876244E0,-1.304686546E0,9.737844626E0
3.839513563E0,1.479661703E0,9.523733139E0,-1.302293777E0,9.725577656E0
3.842019604E0,1.525125384E0,9.533304214E0,-1.311864972E0,9.743248246E0
3.844525594E0,1.556231976E0,9.562018394E0,-1.314257860E0,9.776570332E0
3.847031636E0,1.572981834E0,9.569196701E0,-1.326221943E0,9.787883428E0
3.849537677E0,1.592124343E0,9.585947037E0,-1.333400369E0,9.808322846E0
3.852043719E0,1.587338686E0,9.600303650E0,-1.357328653E0,9.824857014E0
3.854549761E0,1.537089467E0,9.588339806E0,-1.352542996E0,9.804502885E0
3.857055802E0,1.508375525E0,9.581160545E0,-1.350150228E0,9.792688076E0
3.859561844E0,1.477268934E0,9.573982239E0,-1.350150228E0,9.780918415E0
3.862067886E0,1.436590910E0,9.559625626E0,-1.352542996E0,9.761127399E0
3.864573927E0,1.395613790E0,9.530911446E0,-1.354935765E0,9.727376921E0
3.867079969E0,1.354935765E0,9.538089752E0,-1.362114310E0,9.729664046E0
3.869586011E0,1.333400369E0,9.514162064E0,-1.366899967E0,9.703898796E0
3.872092052E0,1.314257860E0,9.521340370E0,-1.359721422E0,9.707318812E0
3.874598094E0,1.314257860E0,9.530911446E0,-1.364507079E0,9.717377541E0
3.877104136E0,1.295115232E0,9.538089752E0,-1.376471281E0,9.723536022E0
3.879610177E0,1.319043517E0,9.538089752E0,-1.376471281E0,9.726752033E0
3.882116219E0,1.347757339E0,9.547661781E0,-1.378864050E0,9.740408688E0
3.884622261E0,1.374078393E0,9.550054550E0,-1.378864050E0,9.746430085E0
3.887128302E0,1.415055513E0,9.576375008E0,-1.381256819E0,9.778405330E0
3.889634344E0,1.441376567E0,9.583553314E0,-1.366899967E0,9.787260907E0
3.892140386E0,1.472483277E0,9.581160545E0,-1.335793257E0,9.785253600E0
3.894646427E0,1.482054472E0,9.573982239E0,-1.335793257E0,9.779671006E0
3.897152469E0,1.501197100E0,9.571589470E0,-1.316650629E0,9.777652407E0
3.899658511E0,1.520339727E0,9.559625626E0,-1.326221943E0,9.770196499E0
3.902164552E0,1.551446438E0,9.550054550E0,-1.333400369E0,9.766702847E0
3.904670594E0,1.544267893E0,9.514162064E0,-1.321436286E0,9.728835334E0
3.907176636E0,1.541875124E0,9.521340370E0,-1.311864972E0,9.734181581E0
3.909682677E0,1.577767372E0,9.518947601E0,-1.342971683E0,9.741831771E0
3.912188719E0,1.596910000E0,9.538089752E0,-1.354935765E0,9.765302279E0
3.914694761E0,1.606481314E0,9.545269012E0,-1.376471281E0,9.776891936E0
3.917200802E0,1.639980793E0,9.547661781E0,-1.386042476E0,9.786137963E0
3.919706844E0,1.647159338E0,9.547661781E0,-1.378864050E0,9.786329518E0
3.922212834E0,1.666301847E0,9.547661781E0,-1.376471281E0,9.789232887E0
3.924718875E0,1.704586983E0,9.552447319E0,-1.371685624E0,9.799815713E0
3.927224917E0,1.706979871E0,9.554840088E0,-1.381256819E0,9.803908393E0
3.929730959E0,1.733300924E0,9.569196701E0,-1.371685624E0,9.821169943E0
3.932237000E0,1.764407635E0,9.562018394E0,-1.374078393E0,9.820052011E0
3.934743042E0,1.776371717E0,9.542876244E0,-1.383649707E0,9.804920703E0
3.937249084E0,1.778764486E0,9.552447319E0,-1.364507079E0,9.811989220E0
3.939755125E0,1.778764486E0,9.559625626E0,-1.347757339E0,9.816664151E0
3.942261167E0,1.757229090E0,9.566803932E0,-1.326221943E0,9.816845532E0
3.944767209E0,1.718943954E0,9.562018394E0,-1.316650629E0,9.804107964E0
3.947273250E0,1.668694735E0,9.552447319E0,-1.316650629E0,9.786079950E0
3.949779292E0,1.656730533E0,9.569196701E0,-1.316650629E0,9.800400524E0
3.952285334E0,1.630409479E0,9.564411163E0,-1.311864972E0,9.790668296E0
3.954791375E0,1.584945917E0,9.547661781E0,-1.307079315E0,9.766184280E0
3.957297417E0,1.534696579E0,9.545269012E0,-1.304686546E0,9.755493893E0
3.959803459E0,1.508375525E0,9.542876244E0,-1.309472203E0,9.749687235E0
3.962309500E0,1.494018674E0,9.542876244E0,-1.338186026E0,9.751375320E0
3.964815542E0,1.470090389E0,9.526125908E0,-1.352542996E0,9.733324875E0
3.967321584E0,1.496411443E0,9.521340370E0,-1.366899967E0,9.734658965E0
3.969827625E0,1.515554070E0,9.535696983E0,-1.378864050E0,9.753342359E0
3.972333667E0,1.513161182E0,9.538089752E0,-1.381256819E0,9.755648788E0
3.974839709E0,1.510768414E0,9.545269012E0,-1.366899967E0,9.760276494E0
3.977345750E0,1.534696579E0,9.554840088E0,-1.364507079E0,9.773031375E0
3.979851792E0,1.553839207E0,9.564411163E0,-1.362114310E0,9.785077035E0
3.982357834E0,1.580160260E0,9.585947037E0,-1.342971683E0,9.807693917E0
3.984863875E0,1.594517231E0,9.583553314E0,-1.345364571E0,9.808006176E0
3.987369917E0,1.608874083E0,9.583553314E0,-1.345364571E0,9.810350441E0
3.989875959E0,1.604088426E0,9.581160545E0,-1.357328653E0,9.808877517E0
3.992382000E0,1.632802367E0,9.581160545E0,-1.342971683E0,9.811638696E0
3.994888042E0,1.642373681E0,9.566803932E0,-1.316650629E0,9.795646873E0
3.997394032E0,1.620838284E0,9.559625626E0,-1.295115232E0,9.782171656E0
3.999900073E0,1.635195136E0,9.562018394E0,-1.287936807E0,9.785951161E0
4.002406115E0,1.632802367E0,9.554840088E0,-1.254437327E0,9.774181586E0
4.004912157E0,1.661516190E0,9.557232857E0,-1.254437327E0,9.781357213E0
4.007418198E0,1.711765528E0,9.550054550E0,-1.268794179E0,9.784861869E0
4.009924240E0,1.740479350E0,9.552447319E0,-1.278365493E0,9.793504811E0
4.012430282E0,1.790728688E0,9.564411163E0,-1.290329576E0,9.815784255E0
4.014936323E0,1.802692771E0,9.545269012E0,-1.292722464E0,9.799642499E0
4.017442365E0,1.831406593E0,9.530911446E0,-1.326221943E0,9.795467714E0
4.019948407E0,1.874477386E0,9.540482521E0,-1.335793257E0,9.814214988E0
4.022454448E0,1.931905150E0,9.562018394E0,-1.381256819E0,9.852528796E0
4.024960490E0,1.960619092E0,9.571589470E0,-1.388435364E0,9.868490511E0
4.027466532E0,1.994417667E0,9.573982239E0,-1.398006678E0,9.878930125E0
4.029972573E0,2.018345833E0,9.552447319E0,-1.395613790E0,9.862591319E0
4.032478615E0,2.018345833E0,9.547661781E0,-1.364507079E0,9.853600609E0
4.034984657E0,1.970489502E0,9.516554832E0,-1.323829174E0,9.808168455E0
4.037490698E0,1.943869352E0,9.471091270E0,-1.290329576E0,9.754237455E0
4.039996740E0,1.934298038E0,9.454340935E0,-1.266401410E0,9.732925765E0
4.042502782E0,1.924726725E0,9.451948166E0,-1.242473125E0,9.725617541E0
4.045008823E0,1.927119493E0,9.439984322E0,-1.244866014E0,9.714771481E0
4.047514865E0,1.941476464E0,9.451948166E0,-1.242473125E0,9.728946215E0
4.050020907E0,1.965703845E0,9.475876808E0,-1.240080357E0,9.756742908E0
4.052526948E0,1.982453585E0,9.521340370E0,-1.264008522E0,9.807332064E0
4.055032990E0,1.994417667E0,9.540482521E0,-1.261615753E0,9.828030468E0
4.057539032E0,1.953440547E0,9.562018394E0,-1.206580877E0,9.833817324E0
4.060045073E0,1.888834357E0,9.583553314E0,-1.161117196E0,9.836685544E0
4.062551115E0,1.800299883E0,9.588339806E0,-1.113260746E0,9.819200038E0
4.065057157E0,1.716551185E0,9.600303650E0,-1.048654556E0,9.808774364E0
4.067563198E0,1.616052628E0,9.583553314E0,-1.024726272E0,9.772726547E0
4.070069240E0,1.541875124E0,9.547661781E0,-1.024726272E0,9.725496816E0
4.072575282E0,1.522732496E0,9.538089752E0,-1.098903775E0,9.721186136E0
4.075081323E0,1.541875124E0,9.528518677E0,-1.189831018E0,9.725520291E0
4.077587365E0,1.534696579E0,9.516554832E0,-1.316650629E0,9.729012198E0
4.080093354E0,1.572981834E0,9.521340370E0,-1.443769336E0,9.757800172E0
4.082599396E0,1.618445396E0,9.533304214E0,-1.541875124E0,9.791865688E0
4.085105438E0,1.647159338E0,9.562018394E0,-1.592124343E0,9.832608483E0
4.087611479E0,1.661516190E0,9.566803932E0,-1.587338686E0,9.838903274E0
4.090117521E0,1.704586983E0,9.559625626E0,-1.565803289E0,9.835842558E0
4.092623563E0,1.742872238E0,9.540482521E0,-1.527518153E0,9.817928604E0
4.095129604E0,1.778764486E0,9.511769295E0,-1.489233017E0,9.790585947E0
4.097635646E0,1.843370795E0,9.473484039E0,-1.443769336E0,9.758554484E0
4.100141688E0,1.915155411E0,9.456734657E0,-1.378864050E0,9.746738772E0
4.102647729E0,1.999203324E0,9.428020477E0,-1.292722464E0,9.723966033E0
4.105153771E0,2.059023857E0,9.428020477E0,-1.175474167E0,9.721568232E0
4.107659813E0,2.099701881E0,9.456734657E0,-1.043868899E0,9.743112472E0
4.110165854E0,2.080559254E0,9.480662346E0,-9.242277741E-1,9.750173450E0
4.112671896E0,2.039881229E0,9.516554832E0,-8.715856671E-1,9.771672983E0
4.115177938E0,1.994417667E0,9.533304214E0,-9.074779749E-1,9.781876474E0
4.117683979E0,1.931905150E0,9.528518677E0,-1.017547846E0,9.775496371E0
4.120190021E0,1.886441588E0,9.518947601E0,-1.144367456E0,9.771315274E0
4.122696063E0,1.862513304E0,9.497411728E0,-1.314257860E0,9.767141806E0
4.125202104E0,1.864906192E0,9.483055115E0,-1.491625786E0,9.779118411E0
4.127708146E0,1.843370795E0,9.480662346E0,-1.618445396E0,9.792871893E0
4.130214188E0,1.860120535E0,9.499805450E0,-1.692622900E0,9.827070992E0
4.132720229E0,1.867298961E0,9.506983757E0,-1.723729610E0,9.840771786E0
4.135226271E0,1.879263043E0,9.542876244E0,-1.678265929E0,9.869888202E0
4.137732313E0,1.910369754E0,9.564411163E0,-1.625623941E0,9.887877765E0
4.140238354E0,1.970489502E0,9.562018394E0,-1.565803289E0,9.887707752E0
4.142744396E0,2.020738840E0,9.526125908E0,-1.513161182E0,9.854953934E0
4.145250438E0,2.085345030E0,9.473484039E0,-1.450947881E0,9.808201338E0
4.147756479E0,2.140379906E0,9.444769859E0,-1.359721422E0,9.779250799E0
4.150262521E0,2.164308071E0,9.432806015E0,-1.228116274E0,9.755528091E0
4.152768563E0,2.166700840E0,9.418449402E0,-1.113260746E0,9.728367343E0
4.155274604E0,2.149951220E0,9.430413246E0,-1.015154958E0,9.725508924E0
4.157780646E0,2.145165443E0,9.454340935E0,-9.601200819E-1,9.742080264E0
4.160286688E0,2.159522533E0,9.485447884E0,-9.888339639E-1,9.778294930E0
4.162792677E0,2.190629244E0,9.492626190E0,-1.098903775E0,9.803897081E0
4.165298719E0,2.240878344E0,9.492626190E0,-1.232901812E0,9.831151235E0
4.167804761E0,2.269592285E0,9.471091270E0,-1.335793257E0,9.830410094E0
4.170310802E0,2.334198475E0,9.483055115E0,-1.422233939E0,9.869121856E0
4.172816844E0,2.396411896E0,9.483055115E0,-1.501197100E0,9.895691841E0
4.175322886E0,2.427518606E0,9.475876808E0,-1.558624864E0,9.905271290E0
4.177828927E0,2.446661234E0,9.468698502E0,-1.575374603E0,9.905766384E0
4.180334969E0,2.432304144E0,9.454340935E0,-1.546660781E0,9.883968106E0
4.182841011E0,2.401197433E0,9.432806015E0,-1.489233017E0,9.846897654E0
