"Time (s)","Acceleration x (m/s^2)","Acceleration y (m/s^2)","Acceleration z (m/s^2)","Absolute acceleration (m/s^2)"
4.961358000E-3,2.826521695E-1,9.784550667E0,2.129612118E-1,9.790948702E0
7.493181000E-3,2.970091105E-1,9.794121742E0,1.459621787E-1,9.799711224E0
1.004797300E-2,2.970091105E-1,9.823135376E0,9.092725813E-2,9.828045116E0
1.260406700E-2,2.751746178E-1,9.815657616E0,5.264209956E-2,9.819655121E0
1.516016000E-2,2.536391914E-1,9.813264847E0,2.392822690E-2,9.816571313E0
1.771625400E-2,2.129612118E-1,9.796515465E0,-1.435693540E-2,9.798840434E0
2.027234800E-2,1.746760458E-1,9.784550667E0,-1.674975827E-2,9.786124055E0
2.282844200E-2,1.507478207E-1,9.782157898E0,-4.067798331E-2,9.783403945E0
2.538453500E-2,1.339980662E-1,9.794121742E0,-4.546362907E-2,9.795143854E0
2.794062900E-2,1.172483116E-1,9.794121742E0,-5.264209956E-2,9.794964985E0
3.049672300E-2,1.052841991E-1,9.808479309E0,-6.699903309E-2,9.809273163E0
3.305281700E-2,9.332008660E-2,9.818050385E0,-5.503492057E-2,9.818648116E0
3.560891000E-2,6.939185411E-2,9.813264847E0,-4.546362907E-2,9.813615497E0
3.816500400E-2,7.657032460E-2,9.815657616E0,-2.392822644E-3,9.815956559E0
4.072109800E-2,6.699903309E-2,9.818050385E0,3.828516230E-2,9.818353629E0
4.327719200E-2,6.221338734E-2,9.784550667E0,5.503492057E-2,9.784903224E0
4.583328500E-2,5.742774159E-2,9.779765129E0,8.374879509E-2,9.780292316E0
4.838937900E-2,8.135596663E-2,9.763015747E0,1.100698411E-1,9.763975145E0
5.094547300E-2,1.028913707E-1,9.763015747E0,1.268195957E-1,9.764381512E0
5.350156700E-2,9.810572863E-2,9.772586823E0,1.363908947E-1,9.774030919E0
5.605766000E-2,7.657032460E-2,9.789336205E0,1.459621787E-1,9.790723737E0
5.861375400E-2,5.264209956E-2,9.796515465E0,1.627119333E-1,9.798008043E0
6.116984800E-2,1.674975827E-2,9.789336205E0,1.698904037E-1,9.790824614E0
6.372594200E-2,-1.914258115E-2,9.765408516E0,1.507478207E-1,9.766590747E0
6.628203500E-2,-1.196411345E-2,9.751050949E0,1.244267747E-1,9.751852120E0
6.883812900E-2,-1.435693540E-2,9.727123260E0,7.417750359E-2,9.727416684E0
7.139422300E-2,4.785645287E-3,9.715159416E0,2.632104978E-2,9.715196250E0
7.395031700E-2,5.024927482E-2,9.710372925E0,-2.392822690E-2,9.710532420E0
7.650641000E-2,8.374879509E-2,9.719944954E0,-6.221338734E-2,9.720504836E0
7.906250400E-2,9.571290761E-2,9.741479874E0,-6.460621208E-2,9.742164290E0
8.161859800E-2,1.459621787E-1,9.755837440E0,-5.503492057E-2,9.757084501E0
8.417469200E-2,1.627119333E-1,9.777372360E0,-2.632104978E-2,9.778761590E0
8.673078500E-2,1.435693651E-1,9.765408516E0,-1.674975827E-2,9.766478188E0
8.928687900E-2,1.100698411E-1,9.765408516E0,7.178467698E-3,9.766031455E0
9.184297300E-2,6.699903309E-2,9.765408516E0,2.392822690E-2,9.765667663E0
9.439906700E-2,-1.435693540E-2,9.782157898E0,5.742774159E-2,9.782337001E0
9.695516000E-2,-7.896314561E-2,9.770194054E0,7.417750359E-2,9.770794713E0
9.951125400E-2,-1.651047617E-1,9.755837440E0,1.028913707E-1,9.757776918E0
1.020673480E-1,-1.986042857E-1,9.748658180E0,1.076770201E-1,9.751275523E0
1.046234420E-1,-2.129612118E-1,9.739087105E0,9.332008660E-2,9.741862181E0
1.071795350E-1,-1.770688742E-1,9.741479874E0,7.657032460E-2,9.743389889E0
1.097356290E-1,-9.571290761E-2,9.755837440E0,8.614161611E-2,9.756687220E0
1.122917230E-1,-3.349951655E-2,9.774979591E0,8.135596663E-2,9.775375544E0
1.148478170E-1,1.914258115E-2,9.786943436E0,7.657032460E-2,9.787261684E0
1.174039100E-1,7.178468257E-2,9.798908234E0,8.614161611E-2,9.799549785E0
1.199600040E-1,8.614161611E-2,9.803693771E0,9.810572863E-2,9.804563054E0
1.225160980E-1,8.374879509E-2,9.772586823E0,8.614161611E-2,9.773325301E0
1.250721920E-1,7.657032460E-2,9.779765129E0,1.004985496E-1,9.780581218E0
1.276282850E-1,5.024927482E-2,9.739087105E0,9.810572863E-2,9.739710846E0
1.301843790E-1,1.196411345E-2,9.736694336E0,1.052841991E-1,9.737270896E0
1.327404730E-1,-3.110669367E-2,9.729516029E0,1.339980662E-1,9.730488440E0
1.352965670E-1,-5.264209956E-2,9.717552185E0,1.435693651E-1,9.718755261E0
1.378526600E-1,-6.939185411E-2,9.724730492E0,1.531406492E-1,9.726183754E0
1.404087540E-1,-7.178468257E-2,9.739087105E0,1.483550072E-1,9.740481502E0
1.429648480E-1,-4.067798331E-2,9.746265411E0,1.268195957E-1,9.747175354E0
1.455209420E-1,-9.571290575E-3,9.772586823E0,7.417750359E-2,9.772873023E0
1.480770350E-1,4.067798331E-2,9.774979591E0,1.435693540E-2,9.775074774E0
1.506331290E-1,1.076770201E-1,9.786943436E0,-2.392822690E-2,9.787565004E0
1.531892230E-1,1.722832322E-1,9.808479309E0,-4.067798331E-2,9.810076583E0
1.557453170E-1,2.392822653E-1,9.810872078E0,-7.417750359E-2,9.814069963E0
1.583014100E-1,2.751746178E-1,9.794121742E0,-8.853443712E-2,9.798386608E0
1.608575040E-1,3.017947674E-1,9.796515465E0,-1.004985496E-1,9.801678188E0
1.634135980E-1,3.041875660E-1,9.772586823E0,-1.100698411E-1,9.777939387E0
1.659696920E-1,2.727817893E-1,9.751050949E0,-9.810572863E-2,9.755359002E0
1.685257850E-1,2.249253243E-1,9.729516029E0,-6.221338734E-2,9.732314425E0
1.710818790E-1,1.603191197E-1,9.698409081E0,-1.435693540E-2,9.699744689E0
1.736379730E-1,1.220339537E-1,9.703194618E0,1.196411345E-2,9.703969354E0
1.761940670E-1,1.076770201E-1,9.719944954E0,5.024927482E-2,9.720671234E0
1.787501600E-1,1.076770201E-1,9.765408516E0,7.657032460E-2,9.766302311E0
1.813062540E-1,1.124626622E-1,9.784550667E0,1.004985496E-1,9.785713033E0
1.838623480E-1,1.268195957E-1,9.760622978E0,1.100698411E-1,9.762067379E0
1.864184420E-1,8.374879509E-2,9.727123260E0,9.810572863E-2,9.727978491E0
1.889745350E-1,5.264209956E-2,9.707980156E0,8.135596663E-2,9.708463766E0
1.915306290E-1,1.914258115E-2,9.717552185E0,1.220339537E-1,9.718337265E0
1.940867230E-1,-1.196411345E-2,9.715159416E0,1.866401732E-1,9.716959410E0
1.966428170E-1,-1.914258115E-2,9.712766647E0,2.368894368E-1,9.715673882E0
1.991989100E-1,9.571290575E-3,9.719944954E0,2.656033039E-1,9.723577872E0
2.017550040E-1,4.307080805E-2,9.727123260E0,2.679961324E-1,9.730909718E0
2.043110980E-1,9.332008660E-2,9.741479874E0,2.321037948E-1,9.744691423E0
2.068671920E-1,1.411765367E-1,9.751050949E0,1.914258152E-1,9.753951469E0
2.094232850E-1,2.081755698E-1,9.763015747E0,1.124626622E-1,9.765882520E0
2.119793790E-1,2.608176768E-1,9.772586823E0,5.982056633E-2,9.776249668E0
2.145354730E-1,2.874378264E-1,9.803693771E0,2.392822690E-2,9.807935798E0
2.170915670E-1,2.799602449E-1,9.808479309E0,-7.178467698E-3,9.812476529E0
2.196476600E-1,2.512463629E-1,9.818050385E0,-4.785645287E-3,9.821265753E0
2.222037540E-1,2.081755698E-1,9.803693771E0,2.392822690E-2,9.805932959E0
2.247598480E-1,1.555334777E-1,9.794121742E0,7.178468257E-2,9.795619654E0
2.273159420E-1,1.004985496E-1,9.774979591E0,9.332008660E-2,9.775941623E0
2.298720350E-1,7.178468257E-2,9.763015747E0,6.699903309E-2,9.763509532E0
2.324281290E-1,5.982056633E-2,9.758230209E0,3.349951655E-2,9.758471066E0
2.349842230E-1,5.742774159E-2,9.763015747E0,7.178467698E-3,9.763187285E0
2.375403170E-1,6.460621208E-2,9.763015747E0,-4.067798331E-2,9.763314250E0
2.400964100E-1,7.178468257E-2,9.789336205E0,-6.939185411E-2,9.789845331E0
2.426525040E-1,8.614161611E-2,9.806086540E0,-1.028913707E-1,9.807004652E0
2.452085980E-1,9.092725813E-2,9.830313683E0,-1.339980662E-1,9.831647387E0
2.477646920E-1,1.196411327E-1,9.810872078E0,-1.196411327E-1,9.812330963E0
2.503207850E-1,1.387837082E-1,9.798908234E0,-1.076770201E-1,9.800482530E0
2.528768790E-1,1.555334777E-1,9.801301003E0,-1.220339537E-1,9.803294563E0
2.554329730E-1,1.579262912E-1,9.798908234E0,-1.124626622E-1,9.800826044E0
2.579890670E-1,1.770688742E-1,9.798908234E0,-1.052841991E-1,9.801073447E0
2.605446400E-1,1.746760458E-1,9.813264847E0,-9.332008660E-2,9.815262977E0
2.630751600E-1,1.914258152E-1,9.832706451E0,-8.135596663E-2,9.834906141E0
2.655810980E-1,2.105683982E-1,9.823135376E0,-7.896314561E-2,9.825709279E0
2.680870350E-1,2.081755698E-1,9.810872078E0,-7.178468257E-2,9.813343010E0
2.705930770E-1,2.057827413E-1,9.794121742E0,-6.939185411E-2,9.796529103E0
2.730990670E-1,2.081755698E-1,9.772586823E0,-6.939185411E-2,9.775050153E0
2.756050040E-1,2.153540403E-1,9.755837440E0,-4.067798331E-2,9.758298839E0
2.781109420E-1,1.818545163E-1,9.741479874E0,-1.196411345E-2,9.743184507E0
2.806169830E-1,1.746760458E-1,9.736694336E0,3.349951655E-2,9.738318671E0
2.831229730E-1,1.890329868E-1,9.760622978E0,7.657032460E-2,9.762753577E0
2.856289630E-1,2.321037948E-1,9.774979591E0,1.076770201E-1,9.778327696E0
2.881349000E-1,2.584248483E-1,9.791728973E0,1.172483116E-1,9.795840283E0
2.906408380E-1,2.946162820E-1,9.803693771E0,1.124626622E-1,9.808764355E0
2.931468790E-1,3.065803945E-1,9.820742607E0,9.332008660E-2,9.825969954E0
2.956528690E-1,3.424727321E-1,9.803693771E0,7.417750359E-2,9.809954202E0
2.981588060E-1,3.568296731E-1,9.782157898E0,4.785645381E-2,9.788780864E0
3.006647440E-1,3.520440459E-1,9.746265411E0,3.589234129E-2,9.752687462E0
3.031707850E-1,3.496512175E-1,9.703194618E0,2.392822690E-2,9.709521839E0
3.056767750E-1,3.305086195E-1,9.676874161E0,4.785645381E-2,9.682634957E0
3.081827650E-1,3.400799036E-1,9.674481392E0,8.135596663E-2,9.680798693E0
3.106887020E-1,3.376871049E-1,9.672088623E0,1.579262912E-1,9.679270201E0
3.131946400E-1,3.233301640E-1,9.693623543E0,2.464607358E-1,9.702145262E0
3.157006810E-1,3.496512175E-1,9.729516029E0,3.185445070E-1,9.741006557E0
3.182066710E-1,3.376871049E-1,9.760622978E0,3.927220106E-1,9.774355430E0
3.207126080E-1,3.352942765E-1,9.779765129E0,4.884349108E-1,9.797693448E0
3.232185460E-1,3.305086195E-1,9.767801285E0,5.745765567E-1,9.790266396E0
3.257245880E-1,3.065803945E-1,9.789336205E0,6.176473498E-1,9.813591754E0
3.282305770E-1,2.608176768E-1,9.767801285E0,6.224330068E-1,9.791087307E0
3.307365670E-1,1.794617027E-1,9.736694336E0,5.961119533E-1,9.756575862E0
3.332425040E-1,1.076770201E-1,9.712766647E0,5.482555032E-1,9.728823895E0
3.357484420E-1,5.742774159E-2,9.710372925E0,4.668995142E-1,9.721760923E0
3.382544830E-1,3.828516230E-2,9.696016312E0,3.376871049E-1,9.701970452E0
3.407604730E-1,5.264209956E-2,9.679266930E0,2.297109663E-1,9.682135437E0
3.432664630E-1,6.699903309E-2,9.705587387E0,1.339980662E-1,9.706743578E0
3.457724000E-1,5.982056633E-2,9.724730492E0,5.742774159E-2,9.725084040E0
3.482783380E-1,5.024927482E-2,9.743872643E0,1.435693540E-2,9.744012787E0
3.507843790E-1,6.221338734E-2,9.751050949E0,-1.674975827E-2,9.751263799E0
3.532903690E-1,8.614161611E-2,9.753444672E0,-3.828516230E-2,9.753900199E0
3.557963580E-1,1.124626622E-1,9.765408516E0,-5.742774159E-2,9.766224925E0
3.583022960E-1,1.292124242E-1,9.748658180E0,-6.221338734E-2,9.749712953E0
3.608082330E-1,1.459621787E-1,9.724730492E0,-8.374879509E-2,9.726186403E0
3.633142750E-1,1.316052526E-1,9.719944954E0,-9.810572863E-2,9.721330906E0
3.658202650E-1,1.052841991E-1,9.731908798E0,-9.810572863E-2,9.732972740E0
3.683262020E-1,1.052841991E-1,9.765408516E0,-5.982056633E-2,9.766159263E0
3.708321400E-1,7.657032460E-2,9.777372360E0,2.392822644E-3,9.777672474E0
3.733381810E-1,2.632104978E-2,9.808479309E0,5.024927482E-2,9.808643339E0
3.758441710E-1,-3.828516230E-2,9.835099220E0,8.135596663E-2,9.835510217E0
3.783501080E-1,-8.374879509E-2,9.861420631E0,7.896314561E-2,9.862092370E0
3.808560460E-1,-1.363908947E-1,9.844670296E0,3.110669367E-2,9.845664190E0
3.833620880E-1,-1.339980662E-1,9.851848602E0,-5.264209956E-2,9.852900464E0
3.858680770E-1,-1.220339537E-1,9.837491989E0,-1.363908947E-1,9.839194245E0
3.883740670E-1,-9.332008660E-2,9.820742607E0,-2.057827413E-1,9.823341617E0
3.908800040E-1,-4.307080805E-2,9.825528145E0,-2.584248483E-1,9.829020390E0
3.933859420E-1,-2.392822644E-3,9.827920914E0,-2.970091105E-1,9.832408129E0
3.958919830E-1,3.589234129E-2,9.823135376E0,-3.185445070E-1,9.828364436E0
3.983979730E-1,6.221338734E-2,9.825528145E0,-2.775674164E-1,9.829644831E0
4.009039630E-1,1.220339537E-1,9.813264847E0,-2.512463629E-1,9.817239122E0
4.034099000E-1,1.483550072E-1,9.782157898E0,-1.818545163E-1,9.784972837E0
4.059158380E-1,1.770688742E-1,9.763015747E0,-1.004985496E-1,9.765138495E0
4.084218790E-1,1.722832322E-1,9.748658180E0,-1.435693540E-2,9.750190970E0
4.109278690E-1,1.914258152E-1,9.734301567E0,8.135596663E-2,9.736523488E0
4.134338060E-1,2.081755698E-1,9.703194618E0,1.842473447E-1,9.707176209E0
4.159397440E-1,2.344966233E-1,9.719944954E0,2.799602449E-1,9.726802985E0
4.184457850E-1,2.898306549E-1,9.751050949E0,3.592225015E-1,9.761968922E0
4.209517750E-1,3.161516786E-1,9.777372360E0,4.046861231E-1,9.790849453E0
4.234577650E-1,3.640081584E-1,9.786943436E0,4.357928336E-1,9.803401407E0
4.259637020E-1,3.711866140E-1,9.779765129E0,4.477569461E-1,9.797044032E0
4.284696400E-1,3.831507266E-1,9.765408516E0,4.621138871E-1,9.783841638E0
4.309756810E-1,3.616153300E-1,9.743872643E0,4.764707983E-1,9.762215125E0
4.334816710E-1,3.329014480E-1,9.727123260E0,4.860421121E-1,9.744946754E0
4.359876080E-1,3.041875660E-1,9.722337723E0,5.147559643E-1,9.740706061E0
4.384935460E-1,2.679961324E-1,9.743872643E0,5.410770178E-1,9.762563205E0
4.409995880E-1,2.177468538E-1,9.698409081E0,5.434698462E-1,9.716064628E0
4.435055770E-1,1.076770201E-1,9.602696419E0,5.386841893E-1,9.618396618E0
4.460115670E-1,-2.871387079E-2,9.521340370E0,5.291129351E-1,9.536074005E0
4.485175560E-1,-1.292124242E-1,9.545269012E0,4.956133962E-1,9.559000419E0
4.510234940E-1,-1.674975902E-1,9.607481956E0,4.501497746E-1,9.619480225E0
4.535294310E-1,-1.603191197E-1,9.674481392E0,3.975076675E-1,9.683971539E0
4.560354730E-1,-1.268195957E-1,9.739087105E0,3.472583890E-1,9.746101232E0
4.585414630E-1,-7.657032460E-2,9.767801285E0,3.329014480E-1,9.773772472E0
4.610474000E-1,1.674975827E-2,9.786943436E0,3.065803945E-1,9.791758469E0
4.635533380E-1,1.028913707E-1,9.794121742E0,2.344966233E-1,9.797468857E0
4.660593790E-1,1.962114573E-1,9.746265411E0,1.627119333E-1,9.749598124E0
4.685653690E-1,2.368894368E-1,9.731908798E0,8.853443712E-2,9.735194082E0
4.710713580E-1,2.727817893E-1,9.705587387E0,1.914258115E-2,9.709438855E0
4.735772960E-1,2.584248483E-1,9.600303650E0,-2.153540403E-2,9.603805358E0
4.760832330E-1,1.914258152E-1,9.526125908E0,-3.349951655E-2,9.528107938E0
4.785892750E-1,1.052841991E-1,9.521340370E0,-5.982056633E-2,9.522110360E0
4.810952650E-1,3.589234129E-2,9.593125343E0,-6.939185411E-2,9.593443456E0
4.836012020E-1,-4.785645287E-3,9.672088623E0,-7.896314561E-2,9.672412130E0
4.861071400E-1,1.674975827E-2,9.755837440E0,-8.374879509E-2,9.756211282E0
4.886131810E-1,5.503492057E-2,9.818050385E0,-1.363908947E-1,9.819151932E0
4.911191710E-1,6.699903309E-2,9.830313683E0,-1.914258152E-1,9.832405596E0
4.936251600E-1,8.135596663E-2,9.813264847E0,-2.536391914E-1,9.816879269E0
4.961310980E-1,1.052841991E-1,9.789336205E0,-3.089732230E-1,9.794776799E0
4.986370350E-1,1.339980662E-1,9.779765129E0,-3.496512175E-1,9.786930951E0
5.011430770E-1,1.459621787E-1,9.751050949E0,-3.807578981E-1,9.759573564E0
5.036490670E-1,1.531406492E-1,9.736694336E0,-3.903291821E-1,9.745718317E0
5.061550560E-1,1.531406492E-1,9.724730492E0,-3.735794425E-1,9.733108280E0
5.086609940E-1,1.387837082E-1,9.734301567E0,-3.711866140E-1,9.742364570E0
5.111669310E-1,1.387837082E-1,9.755837440E0,-3.855435550E-1,9.764438996E0
5.136729730E-1,1.196411327E-1,9.767801285E0,-4.262215197E-1,9.777828017E0
5.161789630E-1,1.004985496E-1,9.777372360E0,-4.836492836E-1,9.789843046E0
5.186849000E-1,6.699903309E-2,9.786943436E0,-5.673980713E-1,9.803606033E0
5.211908380E-1,4.067798331E-2,9.813264847E0,-5.961119533E-1,9.831437896E0
5.236968790E-1,1.196411345E-2,9.827920914E0,-6.200401783E-1,9.847467819E0
5.262028690E-1,-2.871387079E-2,9.815657616E0,-6.559324861E-1,9.837591491E0
5.287088580E-1,-5.982056633E-2,9.794121742E0,-6.846463680E-1,9.818204513E0
5.312147960E-1,-9.332008660E-2,9.774979591E0,-6.918248534E-1,9.799875320E0
5.337207330E-1,-1.244267747E-1,9.736694336E0,-7.109674215E-1,9.763409921E0
5.362267750E-1,-1.435693651E-1,9.703194618E0,-7.492526174E-1,9.733138109E0
5.387327650E-1,-1.483550072E-1,9.686445236E0,-7.707880139E-1,9.718196576E0
5.412387540E-1,-1.124626622E-1,9.700801849E0,-7.875377536E-1,9.733366328E0
5.437446920E-1,-4.067798331E-2,9.743872643E0,-8.042874932E-1,9.777095026E0
5.462506290E-1,4.785645381E-2,9.767801285E0,-8.066803217E-1,9.801171630E0
5.487566710E-1,1.363908947E-1,9.813264847E0,-7.851449251E-1,9.845568647E0
5.512626600E-1,2.129612118E-1,9.825528145E0,-7.540382147E-1,9.856720014E0
5.537685980E-1,2.727817893E-1,9.813264847E0,-6.894320250E-1,9.841234342E0
5.562745350E-1,3.137588799E-1,9.794121742E0,-5.937191248E-1,9.817116060E0
5.587805770E-1,3.520440459E-1,9.760622978E0,-5.147559643E-1,9.780525018E0
5.612865670E-1,3.927220106E-1,9.748658180E0,-4.429712892E-1,9.766616121E0
5.637925560E-1,4.238287210E-1,9.758230209E0,-3.640081584E-1,9.774210431E0
5.662984940E-1,4.549354017E-1,9.758230209E0,-2.850449979E-1,9.772986938E0
5.688044310E-1,4.836492836E-1,9.767801285E0,-2.703889608E-1,9.783504932E0
5.713104730E-1,4.956133962E-1,9.770194054E0,-2.826521695E-1,9.786838955E0
5.738164630E-1,5.099703074E-1,9.786943436E0,-3.209373355E-1,9.805474609E0
5.763224000E-1,5.482555032E-1,9.808479309E0,-3.640081584E-1,9.830531643E0
5.788283380E-1,5.913262963E-1,9.825528145E0,-4.214358926E-1,9.852323499E0
5.813343790E-1,5.817549825E-1,9.818050385E0,-4.525425732E-1,9.845676564E0
5.838403690E-1,5.626124144E-1,9.806086540E0,-4.692923427E-1,9.833417578E0
5.863463580E-1,5.458626747E-1,9.786943436E0,-4.716851711E-1,9.813496562E0
5.888522960E-1,5.099703074E-1,9.765408516E0,-4.525425732E-1,9.789181170E0
5.913582330E-1,4.645066857E-1,9.758230209E0,-4.238287210E-1,9.778468902E0
5.938642750E-1,4.046861231E-1,9.765408516E0,-3.927220106E-1,9.781676999E0
5.963702650E-1,3.711866140E-1,9.767801285E0,-3.137588799E-1,9.779885791E0
5.988762540E-1,3.400799036E-1,9.772586823E0,-2.679961324E-1,9.782174067E0
6.013821920E-1,3.209373355E-1,9.770194054E0,-2.608176768E-1,9.778942605E0
6.038881290E-1,2.922234535E-1,9.753444672E0,-2.344966233E-1,9.760638615E0
6.063941710E-1,2.850449979E-1,9.739087105E0,-2.416750938E-1,9.746254416E0
6.089001600E-1,2.898306549E-1,9.715159416E0,-2.560320199E-1,9.722853320E0
6.114061500E-1,3.161516786E-1,9.712766647E0,-2.826521695E-1,9.722020370E0
6.139120880E-1,3.496512175E-1,9.719944954E0,-3.017947674E-1,9.730912905E0
6.164180250E-1,4.022932947E-1,9.734301567E0,-3.472583890E-1,9.748797633E0
6.189240670E-1,4.214358926E-1,9.760622978E0,-3.735794425E-1,9.776856894E0
6.214300560E-1,4.573282301E-1,9.786943436E0,-3.735794425E-1,9.804742349E0
6.239360460E-1,4.980062246E-1,9.815657616E0,-3.879363835E-1,9.835936115E0
6.264419830E-1,5.362913609E-1,9.820742607E0,-4.046861231E-1,9.843696696E0
6.289479210E-1,5.554339290E-1,9.827920914E0,-4.070789516E-1,9.852017540E0
6.314539630E-1,5.482555032E-1,9.820742607E0,-4.262215197E-1,9.845264559E0
6.339599520E-1,5.362913609E-1,9.820742607E0,-4.357928336E-1,9.845024590E0
6.364658900E-1,5.051847100E-1,9.808479309E0,-4.310071766E-1,9.830933075E0
6.389718270E-1,4.836492836E-1,9.789336205E0,-4.668995142E-1,9.812390897E0
6.414778690E-1,4.477569461E-1,9.774979591E0,-5.003990531E-1,9.798015692E0
6.439838580E-1,4.310071766E-1,9.763015747E0,-5.171487927E-1,9.786198779E0
6.464898480E-1,3.759722710E-1,9.741479874E0,-5.793621540E-1,9.765932919E0
6.489957850E-1,3.329014480E-1,9.736694336E0,-6.798607111E-1,9.766076518E0
6.515017230E-1,2.970091105E-1,9.712766647E0,-7.612167001E-1,9.747076547E0
6.540077650E-1,2.464607358E-1,9.684052467E0,-8.210372925E-1,9.721919426E0
6.565137540E-1,1.818545163E-1,9.686445236E0,-8.548358679E-1,9.725792345E0
6.590197440E-1,1.268195957E-1,9.686445236E0,-8.739784956E-1,9.726620324E0
6.615256810E-1,6.221338734E-2,9.700801849E0,-8.377870321E-1,9.737110153E0
6.640316190E-1,-4.785645287E-3,9.712766647E0,-7.779664397E-1,9.743874518E0
6.665376600E-1,-6.460621208E-2,9.736694336E0,-7.157530785E-1,9.763180477E0
6.690436500E-1,-8.135596663E-2,9.736694336E0,-6.367899179E-1,9.757834636E0
6.715495880E-1,-8.853443712E-2,9.763015747E0,-5.578267574E-1,9.779339728E0
6.740555250E-1,-5.982056633E-2,9.777372360E0,-5.219344497E-1,9.791476106E0
6.765615670E-1,7.178467698E-3,9.765408516E0,-5.291129351E-1,9.779734941E0
6.790675560E-1,7.417750359E-2,9.770194054E0,-5.410770178E-1,9.785446259E0
6.815735460E-1,1.435693651E-1,9.765408516E0,-5.673980713E-1,9.782931882E0
6.840794830E-1,1.914258152E-1,9.782157898E0,-5.626124144E-1,9.800193351E0
6.865854210E-1,2.632105052E-1,9.779765129E0,-5.530411601E-1,9.798925465E0
6.890914630E-1,3.065803945E-1,9.806086540E0,-5.434698462E-1,9.825919003E0
6.915974520E-1,3.592225015E-1,9.806086540E0,-5.410770178E-1,9.827570319E0
6.941034420E-1,3.664009571E-1,9.825528145E0,-5.506483316E-1,9.847764547E0
6.966093790E-1,3.544368446E-1,9.832706451E0,-5.386841893E-1,9.853827799E0
6.991153170E-1,3.376871049E-1,9.835099220E0,-5.315057039E-1,9.855237570E0
7.016213580E-1,3.137588799E-1,9.835099220E0,-5.291129351E-1,9.854317927E0
7.041273480E-1,2.536391914E-1,9.803693771E0,-5.434698462E-1,9.822021374E0
7.066333380E-1,1.938186288E-1,9.763015747E0,-5.697908998E-1,9.781549152E0
7.091392750E-1,1.124626622E-1,9.729516029E0,-5.745765567E-1,9.747115893E0
7.116452130E-1,4.546362907E-2,9.669695854E0,-5.554339290E-1,9.685741670E0
7.141512540E-1,-4.067798331E-2,9.645767212E0,-5.362913609E-1,9.660749879E0
7.166572440E-1,-1.316052526E-1,9.621838570E0,-4.932205677E-1,9.635370462E0
7.191632330E-1,-2.033899277E-1,9.612267494E0,-4.716851711E-1,9.625982586E0
7.216691710E-1,-2.775674164E-1,9.629017830E0,-4.525425732E-1,9.643641575E0
7.241751080E-1,-3.711866140E-1,9.636196136E0,-4.310071766E-1,9.652969630E0
7.266811500E-1,-4.046861231E-1,9.631410599E0,-4.262215197E-1,9.649326700E0
7.291871400E-1,-4.573282301E-1,9.619445801E0,-4.214358926E-1,9.639527729E0
7.316930770E-1,-4.645066857E-1,9.607481956E0,-4.022932947E-1,9.627113581E0
7.341990150E-1,-4.477569461E-1,9.631410599E0,-3.831507266E-1,9.649422826E0
7.367050560E-1,-3.999004960E-1,9.652945518E0,-4.070789516E-1,9.669797871E0
7.392110460E-1,-3.329014480E-1,9.655338287E0,-4.501497746E-1,9.671557043E0
7.417170350E-1,-2.368894368E-1,9.672088623E0,-4.932205677E-1,9.687552914E0
7.442229730E-1,-1.363908947E-1,9.686445236E0,-5.386841893E-1,9.702371073E0
7.467289100E-1,-2.632104978E-2,9.712766647E0,-5.697908998E-1,9.729501036E0
7.492349520E-1,6.699903309E-2,9.717552185E0,-5.745765567E-1,9.734754622E0
7.517409420E-1,1.531406492E-1,9.719944954E0,-5.721837282E-1,9.737975980E0
7.542469310E-1,2.177468538E-1,9.724730492E0,-5.578267574E-1,9.743149774E0
7.567528690E-1,2.922234535E-1,9.722337723E0,-5.171487927E-1,9.740466530E0
7.592588060E-1,3.424727321E-1,9.729516029E0,-4.668995142E-1,9.746730985E0
7.617648480E-1,3.951148391E-1,9.734301567E0,-4.357928336E-1,9.752059174E0
7.642708380E-1,4.046861231E-1,9.736694336E0,-4.118646085E-1,9.753800280E0
7.667767750E-1,3.975076675E-1,9.724730492E0,-3.711866140E-1,9.739926847E0
7.692827130E-1,3.257229924E-1,9.710372925E0,-3.113660514E-1,9.720822322E0
7.717887540E-1,2.512463629E-1,9.705587387E0,-2.249253243E-1,9.711443902E0
7.742947440E-1,1.483550072E-1,9.684052467E0,-1.316052526E-1,9.686082869E0
7.768007330E-1,5.742774159E-2,9.643374443E0,-5.982056633E-2,9.643730974E0
7.793066710E-1,-4.785645287E-3,9.607481956E0,-3.589234129E-2,9.607550193E0
7.818126080E-1,-8.135596663E-2,9.562018394E0,-4.307080805E-2,9.562461486E0
7.843186500E-1,-1.076770201E-1,9.559625626E0,-8.135596663E-2,9.560578185E0
7.868246400E-1,-1.339980662E-1,9.550054550E0,-2.273181528E-1,9.553699332E0
7.893306290E-1,-1.507478207E-1,9.533304214E0,-3.999004960E-1,9.542878735E0
7.918365670E-1,-1.459621787E-1,9.506983757E0,-5.673980713E-1,9.525018934E0
7.943425040E-1,-1.076770201E-1,9.504590988E0,-6.966105103E-1,9.530693070E0
7.968485460E-1,-2.153540403E-2,9.564411163E0,-7.731808424E-1,9.595636159E0
7.993545350E-1,1.148554832E-1,9.617053032E0,-7.588238716E-1,9.647627401E0
8.018605250E-1,2.464607358E-1,9.662516594E0,-7.157530785E-1,9.692124240E0
8.043665150E-1,4.022932947E-1,9.700801849E0,-6.559324861E-1,9.731271440E0
8.068724520E-1,5.769693851E-1,9.748658180E0,-5.769693851E-1,9.782746223E0
8.093783900E-1,7.229315639E-1,9.801301003E0,-5.291129351E-1,9.842158904E0
8.118844310E-1,8.282157183E-1,9.830313683E0,-5.075774789E-1,9.878190283E0
8.143903690E-1,8.907282352E-1,9.847063065E0,-5.123631358E-1,9.900533509E0
8.168963060E-1,9.457631707E-1,9.851848602E0,-5.219344497E-1,9.910893220E0
8.194023480E-1,9.385846853E-1,9.837491989E0,-4.932205677E-1,9.894465947E0
8.219083380E-1,9.074779749E-1,9.810872078E0,-4.573282301E-1,9.863360295E0
8.244143270E-1,8.210372925E-1,9.798908234E0,-4.357928336E-1,9.842896941E0
8.269203170E-1,6.774678826E-1,9.765408516E0,-3.855435550E-1,9.796469264E0
8.294262540E-1,5.626124144E-1,9.727123260E0,-3.640081584E-1,9.750177516E0
8.319321920E-1,4.381856322E-1,9.715159416E0,-3.664009571E-1,9.731936025E0
8.344382330E-1,3.329014480E-1,9.657731056E0,-4.453641176E-1,9.673724294E0
8.369442230E-1,2.464607358E-1,9.621838570E0,-5.602195859E-1,9.641284476E0
8.394501600E-1,2.081755698E-1,9.602696419E0,-7.013961077E-1,9.630528131E0
8.419560980E-1,1.746760458E-1,9.545269012E0,-8.668000102E-1,9.586136578E0
8.444621400E-1,1.842473447E-1,9.547661781E0,-1.019940615E0,9.603752987E0
8.469681290E-1,2.153540403E-1,9.538089752E0,-1.132403374E0,9.607490353E0
8.494741190E-1,2.727817893E-1,9.547661781E0,-1.228116274E0,9.630188211E0
8.519800560E-1,3.376871049E-1,9.552447319E0,-1.295115232E0,9.645755845E0
8.544859940E-1,4.142574072E-1,9.593125343E0,-1.297508121E0,9.689333846E0
8.569920350E-1,5.003990531E-1,9.633803368E0,-1.285543919E0,9.732070165E0
8.594980250E-1,5.626124144E-1,9.652945518E0,-1.252044439E0,9.750051548E0
8.620040150E-1,5.961119533E-1,9.667302132E0,-1.256830096E0,9.766867556E0
8.645099520E-1,5.865406394E-1,9.710372925E0,-1.268794179E0,9.810464358E0
8.670158900E-1,5.841478109E-1,9.719944954E0,-1.302293777E0,9.824180763E0
8.695219310E-1,5.673980713E-1,9.739087105E0,-1.362114310E0,9.850234190E0
8.720279210E-1,5.315057039E-1,9.774979591E0,-1.460519075E0,9.897769461E0
8.745339100E-1,4.884349108E-1,9.751050949E0,-1.568196177E0,9.888417595E0
8.770398480E-1,4.477569461E-1,9.679266930E0,-1.654337764E0,9.829828483E0
8.795457850E-1,3.999004960E-1,9.621838570E0,-1.730908036E0,9.784464242E0
8.820518270E-1,3.616153300E-1,9.566803932E0,-1.800299883E0,9.741436382E0
8.845578170E-1,3.496512175E-1,9.573982239E0,-1.879263043E0,9.762941230E0
8.870638060E-1,3.831507266E-1,9.566803932E0,-1.951047778E0,9.771239911E0
8.895697440E-1,4.142574072E-1,9.547661781E0,-1.992024899E0,9.762049881E0
8.920756810E-1,4.740779996E-1,9.562018394E0,-1.968096614E0,9.773962861E0
8.945817230E-1,5.530411601E-1,9.566803932E0,-1.934298038E0,9.776047305E0
8.970877130E-1,6.870391965E-1,9.571589470E0,-1.903191328E0,9.783122460E0
8.995936500E-1,8.330013752E-1,9.605089188E0,-1.886441588E0,9.823965160E0
9.020995880E-1,9.361918569E-1,9.600303650E0,-1.872084618E0,9.825832595E0
9.046056290E-1,1.031904817E0,9.645767212E0,-1.852941990E0,9.876185836E0
9.071116190E-1,1.113260746E0,9.667302132E0,-1.867298961E0,9.908727739E0
9.096176080E-1,1.094118118E0,9.640981674E0,-1.829013824E0,9.873748714E0
9.121235980E-1,1.010369420E0,9.595518112E0,-1.726122379E0,9.801750490E0
9.146295350E-1,9.672985673E-1,9.602696419E0,-1.616052628E0,9.785656397E0
9.171354730E-1,9.433703423E-1,9.631410599E0,-1.489233017E0,9.791416277E0
9.196415150E-1,9.074779749E-1,9.660123825E0,-1.333400369E0,9.793848331E0
9.221475040E-1,8.691928387E-1,9.655338287E0,-1.268794179E0,9.777059492E0
9.246534420E-1,7.899305820E-1,9.624231339E0,-1.237687469E0,9.735588809E0
9.271593790E-1,7.157530785E-1,9.609874725E0,-1.273579836E0,9.720288077E0
9.296654210E-1,6.367899179E-1,9.562018394E0,-1.297508121E0,9.670637233E0
9.321714100E-1,5.721837282E-1,9.540482521E0,-1.302293777E0,9.645940599E0
9.346774000E-1,5.578267574E-1,9.554840088E0,-1.350150228E0,9.665870133E0
9.371833380E-1,5.578267574E-1,9.547661781E0,-1.378864050E0,9.662829930E0
9.396892750E-1,5.243272781E-1,9.554840088E0,-1.383649707E0,9.668731805E0
9.421953170E-1,5.051847100E-1,9.569196701E0,-1.366899967E0,9.679522334E0
9.447013060E-1,5.051847100E-1,9.590732574E0,-1.412662625E0,9.707367233E0
9.472072960E-1,4.932205677E-1,9.607481956E0,-1.390828133E0,9.720153238E0
9.497132330E-1,5.147559643E-1,9.617053032E0,-1.376471281E0,9.728687265E0
9.522191710E-1,4.980062246E-1,9.554840088E0,-1.290329576E0,9.654425396E0
9.547252130E-1,5.506483316E-1,9.516554832E0,-1.230509043E0,9.611565011E0
9.572312020E-1,6.726822853E-1,9.523733139E0,-1.165902853E0,9.618384678E0
9.597371920E-1,8.715856671E-1,9.578767776E0,-1.180259824E0,9.690483318E0
9.622431290E-1,1.122832060E0,9.614660263E0,-1.201795220E0,9.754319841E0
9.647490670E-1,1.376471281E0,9.657731056E0,-1.299900889E0,9.841553976E0
9.672551080E-1,1.549053550E0,9.672088623E0,-1.402792215E0,9.895286314E0
9.697610980E-1,1.666301847E0,9.669695854E0,-1.477268934E0,9.922797149E0
9.722670880E-1,1.738086581E0,9.707980156E0,-1.534696579E0,9.981037885E0
9.747730250E-1,1.714158297E0,9.698409081E0,-1.577767372E0,9.974308359E0
9.772789630E-1,1.604088426E0,9.664909363E0,-1.580160260E0,9.923733124E0
9.797850040E-1,1.405484200E0,9.600303650E0,-1.561017632E0,9.827410241E0
9.822909940E-1,1.201795220E0,9.588339806E0,-1.546660781E0,9.786354354E0
9.847969830E-1,9.696913958E-1,9.569196701E0,-1.541875124E0,9.741006406E0
9.873029210E-1,8.186444640E-1,9.509376526E0,-1.568196177E0,9.672520867E0
9.898088580E-1,7.444669604E-1,9.466305733E0,-1.572981834E0,9.624938812E0
9.923149000E-1,7.755736113E-1,9.471091270E0,-1.704586983E0,9.654465343E0
9.948208900E-1,8.715856671E-1,9.530911446E0,-1.888834357E0,9.755287274E0
9.973268790E-1,9.840483069E-1,9.590732574E0,-2.008774519E0,9.848130658E0
9.998328170E-1,1.110867858E0,9.640981674E0,-2.085345030E0,9.926289283E0
1.002338754E0,1.252044439E0,9.707980156E0,-2.200200319E0,1.003261558E1
1.004844796E0,1.331007600E0,9.753444672E0,-2.293520451E0,1.010749723E1
1.007350785E0,1.326221943E0,9.700801849E0,-2.226521492E0,1.004100688E1
1.009856775E0,1.350150228E0,9.559625626E0,-2.054238319E0,9.870625249E0
1.012362713E0,1.460519075E0,9.459127426E0,-1.941476464E0,9.766142457E0
1.014868650E0,1.635195136E0,9.451948166E0,-1.845763564E0,9.768317685E0
1.017374692E0,1.836192250E0,9.425627708E0,-1.747657895E0,9.760551613E0
1.019880681E0,2.054238319E0,9.456734657E0,-1.699801445E0,9.825428764E0
1.022386619E0,2.260020971E0,9.497411728E0,-1.706979871E0,9.910716654E0
1.024892556E0,2.468196630E0,9.578767776E0,-1.769193292E0,1.004862337E1
1.027398598E0,2.626421928E0,9.638588905E0,-1.845763564E0,1.015910091E1
1.029904588E0,2.671885490E0,9.633803368E0,-1.793121457E0,1.015698892E1
1.032410577E0,2.695813894E0,9.640981674E0,-1.747657895E0,1.016219702E1
1.034916567E0,2.667099953E0,9.621838570E0,-1.733300924E0,1.013397907E1
1.037422504E0,2.542673111E0,9.612267494E0,-1.699801445E0,1.008713031E1
1.039928442E0,2.360519648E0,9.573982239E0,-1.568196177E0,9.984609565E0
1.042434483E0,2.240878344E0,9.538089752E0,-1.453340650E0,9.904993231E0
1.044940473E0,2.135594130E0,9.499805450E0,-1.350150228E0,9.830054502E0
1.047446410E0,2.066202402E0,9.530911446E0,-1.249651670E0,9.832044276E0
1.049952348E0,2.039881229E0,9.578767776E0,-1.244866014E0,9.872365418E0
1.052458390E0,2.027917147E0,9.593125343E0,-1.331007600E0,9.895053463E0
1.054964379E0,1.965703845E0,9.564411163E0,-1.338186026E0,9.855592034E0
1.057470369E0,1.874477386E0,9.576375008E0,-1.316650629E0,9.846532011E0
1.059976358E0,1.817049742E0,9.566803932E0,-1.357328653E0,9.831975809E0
1.062482296E0,1.735693693E0,9.571589470E0,-1.366899967E0,9.823256746E0
1.064988233E0,1.680658817E0,9.562018394E0,-1.359721422E0,9.803349029E0
1.067494275E0,1.644766450E0,9.554840088E0,-1.326221943E0,9.785657383E0
1.070000265E0,1.668694735E0,9.557232857E0,-1.299900889E0,9.788512876E0
1.072506254E0,1.702194214E0,9.590732574E0,-1.311864972E0,9.828560737E0
1.075012192E0,1.750050664E0,9.624231339E0,-1.307079315E0,9.868989944E0
1.077518129E0,1.785943031E0,9.617053032E0,-1.273579836E0,9.864041115E0
1.080024171E0,1.843370795E0,9.612267494E0,-1.192223907E0,9.859771808E0
1.082530160E0,1.884048700E0,9.652945518E0,-1.163509965E0,9.903673668E0
1.085036150E0,1.896012783E0,9.693623543E0,-1.094118118E0,9.937720882E0
1.087542088E0,1.867298961E0,9.722337723E0,-1.029511929E0,9.953419062E0
1.090048025E0,1.754836321E0,9.712766647E0,-9.026923180E-1,9.911212836E0
1.092554067E0,1.601695657E0,9.672088623E0,-8.042874932E-1,9.836747719E0
1.095060056E0,1.431805253E0,9.576375008E0,-7.061817646E-1,9.708538369E0
1.097565994E0,1.261615753E0,9.530911446E0,-6.894320250E-1,9.638737667E0
1.100071931E0,1.141974568E0,9.550054550E0,-8.377870321E-1,9.654508529E0
1.102577973E0,1.053440213E0,9.602696419E0,-1.113260746E0,9.724241065E0
1.105083963E0,9.792626500E-1,9.662516594E0,-1.417448282E0,9.814904070E0
1.107589952E0,8.979067206E-1,9.669695854E0,-1.671087503E0,9.854023941E0
1.110095890E0,8.042874932E-1,9.631410599E0,-1.845763564E0,9.839603225E0
1.112601827E0,7.372884750E-1,9.602696419E0,-1.984846354E0,9.833360964E0
1.115107869E0,7.061817646E-1,9.557232857E0,-2.037488461E0,9.797487014E0
1.117613858E0,7.085745931E-1,9.466305733E0,-2.042274237E0,9.709990023E0
1.120119848E0,7.899305820E-1,9.406484604E0,-2.003988981E0,9.649969677E0
1.122625785E0,9.649057388E-1,9.392127991E0,-2.001596212E0,9.651398794E0
1.125131723E0,1.182652593E0,9.384949684E0,-1.977667928E0,9.663701059E0
1.127637765E0,1.417448282E0,9.382556915E0,-1.987239242E0,9.694877704E0
1.130143754E0,1.625623941E0,9.449555397E0,-2.020738840E0,9.798986471E0
1.132649744E0,1.824228168E0,9.504590988E0,-2.032702923E0,9.889233511E0
1.135155681E0,1.984846354E0,9.571589470E0,-2.018345833E0,9.981415728E0
1.137661619E0,2.130808592E0,9.624231339E0,-2.015953064E0,1.006132401E1
1.140167660E0,2.250449657E0,9.691230774E0,-2.044667006E0,1.015702421E1
1.142673650E0,2.353341103E0,9.767801285E0,-2.111665964E0,1.026680522E1
1.145179640E0,2.434697151E0,9.842277527E0,-2.219342947E0,1.037900093E1
1.147685577E0,2.468196630E0,9.856635094E0,-2.262413740E0,1.040979183E1
1.150191515E0,2.449054003E0,9.820742607E0,-2.334198475E0,1.038717158E1
1.152697556E0,2.386840582E0,9.748658180E0,-2.360519648E0,1.031045088E1
1.155203546E0,2.291127682E0,9.609874725E0,-2.415554523E0,1.017024395E1
1.157709535E0,2.209771633E0,9.511769295E0,-2.489732027E0,1.007748041E1
1.160215473E0,2.128415823E0,9.420842171E0,-2.518445730E0,9.981231889E0
1.162721410E0,2.073380709E0,9.344271660E0,-2.472982168E0,9.885846510E0
1.165227452E0,2.051845312E0,9.315557480E0,-2.429911375E0,9.843482597E0
1.167733442E0,2.063809633E0,9.344271660E0,-2.432304144E0,9.873744300E0
1.170239431E0,2.073380709E0,9.404091835E0,-2.405983210E0,9.925956176E0
1.172745369E0,2.085345030E0,9.459127426E0,-2.372483730E0,9.972584149E0
1.175251306E0,2.087737799E0,9.514162064E0,-2.334198475E0,1.001630727E1
1.177757348E0,2.078166485E0,9.552447319E0,-2.288734913E0,1.004023572E1
1.180263338E0,2.051845312E0,9.585947037E0,-2.252842426E0,1.005861565E1
1.182769327E0,2.008774519E0,9.602696419E0,-2.193022013E0,1.005267622E1
1.185275265E0,1.927119493E0,9.619445801E0,-2.178664923E0,1.004958247E1
1.187781202E0,1.826620936E0,9.588339806E0,-2.090130568E0,9.982056404E0
1.190287244E0,1.706979871E0,9.523733139E0,-2.018345833E0,9.883774233E0
1.192793233E0,1.584945917E0,9.485447884E0,-1.936690807E0,9.810022752E0
1.195299223E0,1.494018674E0,9.475876808E0,-1.843370795E0,9.768436363E0
1.197805160E0,1.400399446E0,9.485447884E0,-1.852941990E0,9.765666090E0
1.200311098E0,1.290329576E0,9.497411728E0,-1.836192250E0,9.758964183E0
1.202817140E0,1.161117196E0,9.499805450E0,-1.824228168E0,9.742807868E0
1.205323129E0,1.053440213E0,9.499805450E0,-1.927119493E0,9.750375861E0
1.207829119E0,9.768698215E-1,9.490233421E0,-2.037488461E0,9.755519682E0
1.210335056E0,9.242277741E-1,9.490233421E0,-2.126022816E0,9.769273278E0
1.212840994E0,9.433703423E-1,9.478269577E0,-2.209771633E0,9.778068953E0
1.215347035E0,9.672985673E-1,9.451948166E0,-2.245664120E0,9.763093669E0
1.217853025E0,1.051047325E0,9.416056633E0,-2.264806747E0,9.741466655E0
1.220359015E0,1.177866936E0,9.363413811E0,-2.243271112E0,9.700162576E0
1.222864952E0,1.357328653E0,9.308379173E0,-2.238485575E0,9.669492312E0
1.225370890E0,1.570588946E0,9.274879456E0,-2.209771633E0,9.662982419E0
1.227876931E0,1.783550143E0,9.265308380E0,-2.133201361E0,9.673548394E0
1.230382921E0,2.025524378E0,9.257830620E0,-2.011167526E0,9.687877560E0
1.232888910E0,2.245664120E0,9.272486687E0,-1.903191328E0,9.728522700E0
1.235394900E0,2.441875458E0,9.286844254E0,-1.829013824E0,9.775148260E0
1.237900838E0,2.600100994E0,9.339486122E0,-1.778764486E0,9.856496807E0
1.240406775E0,2.676671267E0,9.408877373E0,-1.704586983E0,9.929610227E0
1.242912817E0,2.707777977E0,9.442377090E0,-1.616052628E0,9.955007423E0
1.245418806E0,2.686242580E0,9.478269577E0,-1.549053550E0,9.972615518E0
1.247924796E0,2.616850615E0,9.463912964E0,-1.496411443E0,9.932411738E0
1.250430733E0,2.511267424E0,9.437591553E0,-1.479661703E0,9.877448919E0
1.252936671E0,2.365305185E0,9.437591553E0,-1.541875124E0,9.850897514E0
1.255442713E0,2.193022013E0,9.428020477E0,-1.651944876E0,9.819665857E0
1.257948702E0,2.011167526E0,9.437591553E0,-1.805085540E0,9.816886622E0
1.260454692E0,1.838585138E0,9.454340935E0,-1.946262121E0,9.826133220E0
1.262960629E0,1.663909078E0,9.483055115E0,-2.035095692E0,9.840657610E0
1.265466567E0,1.510768414E0,9.487840652E0,-2.106880426E0,9.835674180E0
1.267972608E0,1.407876968E0,9.506983757E0,-2.157129526E0,9.849774896E0
1.270478598E0,1.328614831E0,9.506983757E0,-2.157129526E0,9.838758322E0
1.272984588E0,1.266401410E0,9.499805450E0,-2.111665964E0,9.813725555E0
1.275490525E0,1.252044439E0,9.483055115E0,-2.056631088E0,9.783950175E0
1.277996463E0,1.256830096E0,9.451948166E0,-2.054238319E0,9.753914142E0
1.280502504E0,1.283151150E0,9.449555397E0,-2.037488461E0,9.751509283E0
1.283008494E0,1.314257860E0,9.442377090E0,-2.073380709E0,9.756262932E0
1.285514483E0,1.364507079E0,9.442377090E0,-2.159522533E0,9.781814876E0
1.288020421E0,1.412662625E0,9.447162628E0,-2.295913219E0,9.824241188E0
1.290526358E0,1.470090389E0,9.444769859E0,-2.367697954E0,9.847377166E0
1.293032400E0,1.520339727E0,9.468698502E0,-2.413161755E0,9.888934920E0
1.295538390E0,1.537089467E0,9.514162064E0,-2.439482689E0,9.941478743E0
1.298044379E0,1.537089467E0,9.516554832E0,-2.391626120E0,9.932136497E0
1.300550317E0,1.496411443E0,9.454340935E0,-2.334198475E0,9.852527201E0
1.303056254E0,1.472483277E0,9.420842171E0,-2.374876499E0,9.826520879E0
1.305562296E0,1.472483277E0,9.337093353E0,-2.410768747E0,9.755066645E0
1.308068285E0,1.498804331E0,9.296415329E0,-2.477767944E0,9.736995757E0
1.310574275E0,1.537089467E0,9.325128555E0,-2.592922449E0,9.800199663E0
1.313080213E0,1.539482236E0,9.356235504E0,-2.712563515E0,9.862410922E0
1.315586150E0,1.529910922E0,9.387342453E0,-2.803490877E0,9.915764562E0
1.318092192E0,1.517946839E0,9.384949684E0,-2.841775894E0,9.922556798E0
1.320598181E0,1.431805253E0,9.399306297E0,-2.801098108E0,9.911769558E0
1.323104119E0,1.350150228E0,9.423234940E0,-2.832204819E0,9.931850105E0
1.325610056E0,1.264008522E0,9.451948166E0,-2.913560629E0,9.971252540E0
1.328116098E0,1.168295622E0,9.459127426E0,-2.951845884E0,9.977645035E0
1.330622088E0,1.144367456E0,9.382556915E0,-2.959024191E0,9.904432104E0
1.333128077E0,1.192223907E0,9.305986404E0,-2.923131943E0,9.826875452E0
1.335634067E0,1.345364571E0,9.250652313E0,-2.894418001E0,9.785817780E0
1.338140004E0,1.565803289E0,9.250652313E0,-2.836990356E0,9.801776494E0
1.340645942E0,1.836192250E0,9.291629791E0,-2.753241539E0,9.863383047E0
1.343151983E0,2.106880426E0,9.351449966E0,-2.619243383E0,9.937253016E0
1.345657973E0,2.367697954E0,9.408877373E0,-2.487339020E0,1.001597836E1
1.348163963E0,2.597707987E0,9.461520195E0,-2.456232548E0,1.011442186E1
1.350669900E0,2.798705101E0,9.471091270E0,-2.382055044E0,1.015915874E1
1.353175838E0,2.961417198E0,9.478269577E0,-2.317448616E0,1.019696789E1
1.355681879E0,3.098107100E0,9.437591553E0,-2.219342947E0,1.017800988E1
1.358187869E0,3.162713289E0,9.411270142E0,-2.145165443E0,1.015758317E1
1.360693858E0,3.181855917E0,9.349057198E0,-1.999203324E0,1.007600573E1
1.363199796E0,3.189034462E0,9.291629791E0,-1.857727647E0,9.997773602E0
1.365705733E0,3.150749207E0,9.279664993E0,-1.776371717E0,9.959663620E0
1.368211775E0,3.069094181E0,9.245866776E0,-1.740479350E0,9.896194212E0
1.370717765E0,2.951845884E0,9.294022560E0,-1.752443433E0,9.907739775E0
1.373223754E0,2.801098108E0,9.317950249E0,-1.785943031E0,9.892418307E0
1.375729692E0,2.664707184E0,9.344271660E0,-1.848156333E0,9.890993836E0
1.378235629E0,2.525923491E0,9.353842735E0,-1.955833435E0,9.884328395E0
1.380741671E0,2.429911375E0,9.365806580E0,-2.047059774E0,9.890058437E0
1.383247660E0,2.360519648E0,9.389735222E0,-2.130808592E0,9.913603068E0
1.385753650E0,2.307877541E0,9.420842171E0,-2.207378864E0,9.947416117E0
1.388259640E0,2.271985054E0,9.435198784E0,-2.281556368E0,9.969472987E0
1.390765577E0,2.260020971E0,9.456734657E0,-2.327019930E0,9.997627065E0
1.393271515E0,2.245664120E0,9.478269577E0,-2.331805706E0,1.001588335E1
1.395777556E0,2.209771633E0,9.487840652E0,-2.267199516E0,1.000212000E1
1.398283546E0,2.152343988E0,9.490233421E0,-2.197807550E0,9.976345677E0
1.400789535E0,2.073380709E0,9.487840652E0,-2.171486616E0,9.951551735E0
1.403295473E0,1.982453585E0,9.454340935E0,-2.183450699E0,9.903642849E0
1.405801410E0,1.900798440E0,9.428020477E0,-2.212164640E0,9.868853896E0
1.408307452E0,1.821835399E0,9.399306297E0,-2.245664120E0,9.834075982E0
1.410813442E0,1.800299883E0,9.361021042E0,-2.295913219E0,9.805152325E0
1.413319431E0,1.802692771E0,9.332307816E0,-2.372483730E0,9.796445756E0
1.415825369E0,1.850549221E0,9.337093353E0,-2.449054003E0,9.828718646E0
1.418331306E0,1.936690807E0,9.339486122E0,-2.480160713E0,9.855352326E0
1.420837348E0,2.032702923E0,9.339486122E0,-2.523231506E0,9.885574310E0
1.423343338E0,2.140379906E0,9.365806580E0,-2.557030201E0,9.941728344E0
1.425849327E0,2.214557409E0,9.389735222E0,-2.578565598E0,9.986009844E0
1.428355265E0,2.286342144E0,9.411270142E0,-2.545065880E0,1.001382676E1
1.430861202E0,2.341377020E0,9.432806015E0,-2.499303341E0,1.003525749E1
1.433367244E0,2.355733871E0,9.451948166E0,-2.446661234E0,1.004365259E1
1.435873233E0,2.341377020E0,9.454340935E0,-2.422732830E0,1.003674465E1
1.438379223E0,2.305484533E0,9.475876808E0,-2.446661234E0,1.005453387E1
1.440885160E0,2.212164640E0,9.466305733E0,-2.523231506E0,1.004347121E1
1.443391098E0,2.090130568E0,9.475876808E0,-2.614457846E0,1.004969039E1
1.445897140E0,1.943869352E0,9.463912964E0,-2.679064035E0,1.002604911E1
1.448403129E0,1.793121457E0,9.461520195E0,-2.679064035E0,9.995650707E0
1.450909119E0,1.635195136E0,9.456734657E0,-2.545065880E0,9.928799215E0
1.453415056E0,1.501197100E0,9.454340935E0,-2.336591244E0,9.853822298E0
1.455920994E0,1.354935765E0,9.387342453E0,-2.106880426E0,9.715811566E0
1.458427035E0,1.244866014E0,9.291629791E0,-1.939083695E0,9.573093604E0
1.460933025E0,1.180259824E0,9.231510162E0,-1.840977907E0,9.486990713E0
1.463439015E0,1.163509965E0,9.207581520E0,-1.814656854E0,9.456547593E0
1.465944952E0,1.216152072E0,9.214759827E0,-1.833799481E0,9.473840038E0
1.468450890E0,1.287936807E0,9.243474007E0,-1.903191328E0,9.524848039E0
1.470956931E0,1.359721422E0,9.313164711E0,-1.955833435E0,9.612968517E0
1.473462921E0,1.400399446E0,9.392127991E0,-1.943869352E0,9.692874438E0
1.475968910E0,1.422233939E0,9.449555397E0,-1.869691849E0,9.737175884E0
1.478474900E0,1.431805253E0,9.478269577E0,-1.769193292E0,9.747702568E0
1.480980838E0,1.434198022E0,9.480662346E0,-1.678265929E0,9.734292938E0
1.483486775E0,1.419841170E0,9.471091270E0,-1.616052628E0,9.712319234E0
1.485992817E0,1.505982757E0,9.442377090E0,-1.570588946E0,9.689851331E0
1.488498806E0,1.587338686E0,9.392127991E0,-1.529910922E0,9.647400672E0
1.491004796E0,1.704586983E0,9.363413811E0,-1.501197100E0,9.634974193E0
1.493510733E0,1.860120535E0,9.368199348E0,-1.508375525E0,9.669457284E0
1.496016671E0,2.030309916E0,9.377771378E0,-1.491625786E0,9.710288453E0
1.498522713E0,2.243271112E0,9.399306297E0,-1.539482236E0,9.785153535E0
1.501028702E0,2.449054003E0,9.396913528E0,-1.529910922E0,9.830588833E0
1.503534692E0,2.671885490E0,9.365806580E0,-1.501197100E0,9.854486171E0
1.506040629E0,2.877668381E0,9.349057198E0,-1.496411443E0,9.895710838E0
1.508546567E0,3.064308405E0,9.382556915E0,-1.486840129E0,9.981635830E0
1.511052608E0,3.193820000E0,9.442377090E0,-1.458126307E0,1.007398152E1
1.513558598E0,3.267997503E0,9.473484039E0,-1.529910922E0,1.013742250E1
1.516064588E0,3.313461065E0,9.483055115E0,-1.596910000E0,1.017140502E1
1.518570525E0,3.282354355E0,9.475876808E0,-1.628016710E0,1.015955362E1
1.521076463E0,3.193820000E0,9.420842171E0,-1.663909078E0,1.008570012E1
1.523582504E0,3.057130098E0,9.368199348E0,-1.709372640E0,1.000155779E1
1.526088494E0,2.915953398E0,9.317950249E0,-1.750050664E0,9.919156133E0
1.528594483E0,2.779562712E0,9.279664993E0,-1.795514345E0,9.852006040E0
1.531100421E0,2.635993242E0,9.224330902E0,-1.843370795E0,9.769071443E0
1.533606358E0,2.533101797E0,9.209974289E0,-1.900798440E0,9.739264132E0
1.536112400E0,2.449054003E0,9.198010445E0,-1.941476464E0,9.714452764E0
1.538618390E0,2.422732830E0,9.198010445E0,-1.955833435E0,9.710731946E0
1.541124379E0,2.398804665E0,9.207581520E0,-1.948654890E0,9.712418707E0
1.543630369E0,2.374876499E0,9.195617676E0,-1.943869352E0,9.694227710E0
1.546136306E0,2.370090723E0,9.176474571E0,-1.898405671E0,9.665865698E0
1.548642244E0,2.362912416E0,9.171689034E0,-1.855334878E0,9.651191757E0
1.551148285E0,2.374876499E0,9.188439369E0,-1.840977907E0,9.667298282E0
1.553654275E0,2.384447813E0,9.221938133E0,-1.843370795E0,9.701945691E0
1.556160265E0,2.394019127E0,9.260522842E0,-1.833799481E0,9.739169956E0
1.558666202E0,2.408375978E0,9.308379173E0,-1.814656854E0,9.784639860E0
1.561172140E0,2.403590441E0,9.361021042E0,-1.783550143E0,9.827869203E0
1.563678181E0,2.386840582E0,9.425627708E0,-1.754836321E0,9.880228549E0
1.566184171E0,2.379662037E0,9.483055115E0,-1.733300924E0,9.929524551E0
1.568690160E0,2.350948334E0,9.521340370E0,-1.723729610E0,9.957616396E0
1.571196150E0,2.315055847E0,9.535696983E0,-1.702194214E0,9.959240216E0
1.573702088E0,2.245664120E0,9.559625626E0,-1.666301847E0,9.960221448E0
1.576208025E0,2.135594130E0,9.566803932E0,-1.639980793E0,9.938512804E0
1.578714067E0,2.042274237E0,9.562018394E0,-1.587338686E0,9.905691492E0
1.581220056E0,1.910369754E0,9.552447319E0,-1.558624864E0,9.865499169E0
1.583726046E0,1.795514345E0,9.533304214E0,-1.575374603E0,9.827999092E0
1.586231983E0,1.683051586E0,9.497411728E0,-1.635195136E0,9.783013611E0
1.588737921E0,1.601695657E0,9.485447884E0,-1.695015788E0,9.767918358E0
1.591243963E0,1.541875124E0,9.468698502E0,-1.752443433E0,9.752163257E0
1.593749952E0,1.513161182E0,9.451948166E0,-1.790728688E0,9.738361779E0
1.596255942E0,1.505982757E0,9.449555397E0,-1.838585138E0,9.743843009E0
1.598761879E0,1.505982757E0,9.475876808E0,-1.855334878E0,9.772537688E0
1.601267817E0,1.525125384E0,9.509376526E0,-1.845763564E0,9.806176242E0
1.603773858E0,1.534696579E0,9.542876244E0,-1.864906192E0,9.843762273E0
1.606279848E0,1.527518153E0,9.540482521E0,-1.896012783E0,9.846267461E0
1.608785838E0,1.525125384E0,9.533304214E0,-1.912762642E0,9.842182563E0
1.611291775E0,1.462911963E0,9.530911446E0,-1.915155411E0,9.830880156E0
1.613797713E0,1.364507079E0,9.533304214E0,-1.905584097E0,9.817179817E0
1.616303754E0,1.247258782E0,9.516554832E0,-1.919941068E0,9.788086843E0
1.618809744E0,1.098903775E0,9.480662346E0,-1.922333837E0,9.735805843E0
1.621315733E0,9.385846853E-1,9.456734657E0,-1.975275040E0,9.706311507E0
1.623821671E0,7.827520967E-1,9.442377090E0,-2.059023857E0,9.695914872E0
1.626327608E0,6.607181430E-1,9.404091835E0,-2.181057930E0,9.676285723E0
1.628833650E0,5.530411601E-1,9.394520760E0,-2.271985054E0,9.681156486E0
1.631339640E0,4.932205677E-1,9.389735222E0,-2.312663078E0,9.682913021E0
1.633845629E0,4.788636267E-1,9.399306297E0,-2.295913219E0,9.687491252E0
1.636351619E0,4.956133962E-1,9.418449402E0,-2.236092806E0,9.692932106E0
1.638857556E0,5.243272781E-1,9.444769859E0,-2.193022013E0,9.710197853E0
1.641363494E0,5.506483316E-1,9.449555397E0,-2.185843468E0,9.714691063E0
1.643869535E0,5.937191248E-1,9.480662346E0,-2.166700840E0,9.743205502E0
1.646375525E0,6.559324861E-1,9.495018959E0,-2.145165443E0,9.756401347E0
1.648881515E0,7.085745931E-1,9.509376526E0,-2.130808592E0,9.770909125E0
1.651387504E0,7.779664397E-1,9.511769295E0,-2.087737799E0,9.769218803E0
1.653893442E0,8.258228898E-1,9.514162064E0,-2.047059774E0,9.766868328E0
1.656399379E0,8.859425783E-1,9.485447884E0,-2.027917147E0,9.740177809E0
1.658905421E0,9.553344250E-1,9.473484039E0,-1.994417667E0,9.728168663E0
1.661411410E0,1.015154958E0,9.473484039E0,-1.968096614E0,9.728866517E0
1.663917400E0,1.051047325E0,9.456734657E0,-1.941476464E0,9.711017543E0
1.666423338E0,1.115653515E0,9.473484039E0,-1.924726725E0,9.731194971E0
1.668929275E0,1.168295622E0,9.504590988E0,-1.896012783E0,9.762019719E0
1.671435317E0,1.244866014E0,9.526125908E0,-1.881655931E0,9.789657565E0
1.673941306E0,1.340578914E0,9.554840088E0,-1.872084618E0,9.828368214E0
1.676447296E0,1.415055513E0,9.559625626E0,-1.845763564E0,9.838478914E0
1.678953233E0,1.501197100E0,9.573982239E0,-1.831406593E0,9.862493536E0
1.681459171E0,1.594517231E0,9.571589470E0,-1.809871197E0,9.870838056E0
1.683965213E0,1.687837243E0,9.538089752E0,-1.785943031E0,9.849545329E0
1.686471202E0,1.747657895E0,9.509376526E0,-1.771586061E0,9.829601579E0
1.688977192E0,1.797907114E0,9.478269577E0,-1.757229090E0,9.806014391E0
1.691483129E0,1.874477386E0,9.461520195E0,-1.754836321E0,9.803748282E0
1.693989067E0,1.936690807E0,9.437591553E0,-1.754836321E0,9.792770605E0
1.696495108E0,1.982453585E0,9.451948166E0,-1.750050664E0,9.814892953E0
1.699001098E0,2.003988981E0,9.463912964E0,-1.759621978E0,9.832491542E0
1.701507088E0,2.054238319E0,9.480662346E0,-1.783550143E0,9.863260349E0
1.704013077E0,2.066202402E0,9.461520195E0,-1.802692771E0,9.850850623E0
1.706519015E0,2.082952023E0,9.459127426E0,-1.829013824E0,9.856930169E0
1.709024952E0,2.070987940E0,9.454340935E0,-1.831406593E0,9.850259066E0
1.711530994E0,2.044667006E0,9.442377090E0,-1.843370795E0,9.835505283E0
1.714036983E0,2.013560295E0,9.423234940E0,-1.833799481E0,9.808904237E0
1.716542973E0,1.984846354E0,9.432806015E0,-1.817049742E0,9.809134219E0
1.719048910E0,1.946262121E0,9.430413246E0,-1.807478428E0,9.797326600E0
1.721554848E0,1.903191328E0,9.432806015E0,-1.805085540E0,9.790725221E0
1.724060890E0,1.817049742E0,9.447162628E0,-1.809871197E0,9.789085005E0
1.726566879E0,1.766800404E0,9.447162628E0,-1.800299883E0,9.778115619E0
1.729072869E0,1.699801445E0,9.463912964E0,-1.821835399E0,9.786422112E0
1.731578806E0,1.642373681E0,9.456734657E0,-1.850549221E0,9.775057755E0
1.734084744E0,1.568196177E0,9.459127426E0,-1.836192250E0,9.762475756E0
1.736590785E0,1.501197100E0,9.473484039E0,-1.826620936E0,9.764068651E0
1.739096775E0,1.462911963E0,9.466305733E0,-1.802692771E0,9.746833171E0
1.741602765E0,1.390828133E0,9.461520195E0,-1.762014747E0,9.724169027E0
1.744108754E0,1.359721422E0,9.463912964E0,-1.742872238E0,9.718646746E0
1.746614692E0,1.340578914E0,9.483055115E0,-1.726122379E0,9.731648607E0
1.749120629E0,1.331007600E0,9.475876808E0,-1.728515267E0,9.723764063E0
1.751626671E0,1.345364571E0,9.480662346E0,-1.757229090E0,9.735544074E0
1.754132660E0,1.347757339E0,9.492626190E0,-1.771586061E0,9.750124051E0
1.756638650E0,1.342971683E0,9.490233421E0,-1.769193292E0,9.746699351E0
1.759144588E0,1.362114310E0,9.499805450E0,-1.790728688E0,9.762600485E0
1.761650525E0,1.388435364E0,9.511769295E0,-1.800299883E0,9.779702835E0
1.764156567E0,1.398006678E0,9.499805450E0,-1.802692771E0,9.769873464E0
1.766662556E0,1.398006678E0,9.492626190E0,-1.797907114E0,9.762010277E0
1.769168546E0,1.398006678E0,9.475876808E0,-1.773978829E0,9.741337939E0
1.771674535E0,1.383649707E0,9.463912964E0,-1.723729610E0,9.718609925E0
1.774180473E0,1.335793257E0,9.466305733E0,-1.685444474E0,9.707523419E0
1.776686410E0,1.333400369E0,9.451948166E0,-1.642373681E0,9.685797437E0
1.779192452E0,1.321436286E0,9.451948166E0,-1.608874083E0,9.678532626E0
1.781698442E0,1.326221943E0,9.456734657E0,-1.572981834E0,9.677962951E0
1.784204431E0,1.307079315E0,9.454340935E0,-1.584945917E0,9.674971442E0
1.786710421E0,1.290329576E0,9.483055115E0,-1.587338686E0,9.701181826E0
1.789216358E0,1.264008522E0,9.511769295E0,-1.599302888E0,9.727756287E0
1.791722296E0,1.213759303E0,9.523733139E0,-1.632802367E0,9.738621469E0
1.794228338E0,1.173081279E0,9.554840088E0,-1.637588024E0,9.764874978E0
1.796734327E0,1.094118118E0,9.573982239E0,-1.604088426E0,9.768896050E0
1.799240317E0,1.007976532E0,9.602696419E0,-1.553839207E0,9.779683608E0
1.801746254E0,9.266205430E-1,9.583553314E0,-1.544267893E0,9.751301610E0
1.804252192E0,8.306085467E-1,9.566803932E0,-1.582553029E0,9.732323573E0
1.806758233E0,7.947162390E-1,9.557232857E0,-1.666301847E0,9.733901357E0
1.809264223E0,7.540382147E-1,9.547661781E0,-1.773978829E0,9.740298764E0
1.811770213E0,7.612167001E-1,9.552447319E0,-1.876870275E0,9.764801210E0
1.814276150E0,7.947162390E-1,9.564411163E0,-1.960619092E0,9.795588907E0
1.816782088E0,8.138588071E-1,9.590732574E0,-1.980060697E0,9.826757239E0
1.819288129E0,8.353942037E-1,9.621838570E0,-1.987239242E0,9.860364128E0
1.821794119E0,8.234301209E-1,9.626625061E0,-1.943869352E0,9.855383061E0
1.824300108E0,8.353942037E-1,9.624231339E0,-1.905584097E0,9.846571133E0
1.826806098E0,8.524430394E-1,9.602696419E0,-1.840977907E0,9.814664401E0
1.829312035E0,8.907282352E-1,9.605089188E0,-1.790728688E0,9.811108211E0
1.831817973E0,9.481559992E-1,9.614660263E0,-1.723729610E0,9.813864455E0
1.834324015E0,1.012762189E0,9.605089188E0,-1.671087503E0,9.801834471E0
1.836830004E0,1.060618639E0,9.600303650E0,-1.604088426E0,9.791008209E0
1.839335994E0,1.079761267E0,9.602696419E0,-1.549053550E0,9.786584174E0
1.841841931E0,1.084546804E0,9.595518112E0,-1.522732496E0,9.775935959E0
1.844347869E0,1.079761267E0,9.578767776E0,-1.534696579E0,9.760838596E0
1.846853910E0,1.082154036E0,9.578767776E0,-1.568196177E0,9.766426610E0
1.849359900E0,1.113260746E0,9.564411163E0,-1.644766450E0,9.768447526E0
1.851865890E0,1.175474167E0,9.562018394E0,-1.721336842E0,9.786569154E0
1.854371879E0,1.237687469E0,9.518947601E0,-1.773978829E0,9.761620490E0
1.856877817E0,1.295115232E0,9.516554832E0,-1.805085540E0,9.772434351E0
1.859383754E0,1.359721422E0,9.538089752E0,-1.826620936E0,9.806148200E0
1.861889796E0,1.405484200E0,9.564411163E0,-1.809871197E0,9.835089246E0
1.864395785E0,1.462911963E0,9.571589470E0,-1.776371717E0,9.844335065E0
1.866901775E0,1.489233017E0,9.590732574E0,-1.740479350E0,9.860488561E0
1.869407765E0,1.491625786E0,9.607481956E0,-1.687837243E0,9.868001398E0
1.871913702E0,1.446162224E0,9.600303650E0,-1.620838284E0,9.842983902E0
1.874419640E0,1.450947881E0,9.590732574E0,-1.553839207E0,9.823533852E0
1.876925681E0,1.415055513E0,9.573982239E0,-1.525125384E0,9.797424430E0
1.879431671E0,1.376471281E0,9.557232857E0,-1.515554070E0,9.774061449E0
1.881937660E0,1.335793257E0,9.566803932E0,-1.508375525E0,9.776670079E0
1.884443598E0,1.304686546E0,9.564411163E0,-1.517946839E0,9.771608388E0
1.886949535E0,1.266401410E0,9.564411163E0,-1.522732496E0,9.767315275E0
1.889455577E0,1.230509043E0,9.564411163E0,-1.541875124E0,9.765730505E0
1.891961567E0,1.192223907E0,9.566803932E0,-1.570588946E0,9.767900745E0
1.894467556E0,1.161117196E0,9.552447319E0,-1.577767372E0,9.751245705E0
1.896973494E0,1.153938770E0,9.576375008E0,-1.577767372E0,9.773836650E0
1.899479431E0,1.134796143E0,9.583553314E0,-1.575374603E0,9.778244298E0
1.901985473E0,1.149153113E0,9.554840088E0,-1.584945917E0,9.753336636E0
1.904491463E0,1.151545882E0,9.566803932E0,-1.632802367E0,9.773220501E0
1.906997452E0,1.144367456E0,9.593125343E0,-1.666301847E0,9.803784605E0
1.909503442E0,1.132403374E0,9.600303650E0,-1.666301847E0,9.809420442E0
1.912009379E0,1.113260746E0,9.605089188E0,-1.661516190E0,9.811102071E0
1.914515317E0,1.096511006E0,9.607481956E0,-1.644766450E0,9.808736035E0
1.917021358E0,1.084546804E0,9.607481956E0,-1.659123421E0,9.809823742E0
1.919527348E0,1.048654556E0,9.588339806E0,-1.668694735E0,9.788793527E0
1.922033338E0,1.015154958E0,9.578767776E0,-1.687837243E0,9.779167974E0
1.924539275E0,9.792626500E-1,9.557232857E0,-1.690230131E0,9.754821019E0
1.927045213E0,9.816554785E-1,9.554840088E0,-1.702194214E0,9.754797882E0
1.929551254E0,1.005583763E0,9.562018394E0,-1.706979871E0,9.765099834E0
1.932057244E0,1.034297585E0,9.573982239E0,-1.697408557E0,9.778144160E0
1.934563233E0,1.074975610E0,9.569196701E0,-1.702194214E0,9.778679011E0
1.937069223E0,1.098903775E0,9.547661781E0,-1.730908036E0,9.765320150E0
1.939575160E0,1.106082320E0,9.566803932E0,-1.735693693E0,9.785693035E0
1.942081098E0,1.072582722E0,9.571589470E0,-1.714158297E0,9.782847098E0
1.944587140E0,1.060618639E0,9.562018394E0,-1.675873160E0,9.765534216E0
1.947093129E0,1.024726272E0,9.547661781E0,-1.639980793E0,9.741532037E0
1.949599119E0,9.912267923E-1,9.547661781E0,-1.623231053E0,9.735258348E0
1.952105056E0,9.816554785E-1,9.554840088E0,-1.639980793E0,9.744134317E0
1.954610994E0,9.577272534E-1,9.535696983E0,-1.659123421E0,9.726224806E0
1.957117035E0,9.337990284E-1,9.552447319E0,-1.690230131E0,9.745671260E0
1.959623025E0,9.194421172E-1,9.564411163E0,-1.721336842E0,9.761471981E0
1.962129015E0,8.979067206E-1,9.562018394E0,-1.740479350E0,9.760517436E0
1.964635004E0,8.907282352E-1,9.564411163E0,-1.745265007E0,9.763058314E0
1.967140942E0,9.098708034E-1,9.566803932E0,-1.742872238E0,9.766739783E0
1.969646879E0,9.170492887E-1,9.550054550E0,-1.723729610E0,9.747603043E0
1.972152921E0,9.314061999E-1,9.559625626E0,-1.690230131E0,9.752478531E0
1.974658910E0,9.672985673E-1,9.542876244E0,-1.680658817E0,9.737903654E0
1.977164900E0,1.031904817E0,9.533304214E0,-1.666301847E0,9.732691233E0
1.979670890E0,1.079761267E0,9.526125908E0,-1.639980793E0,9.726381455E0
1.982176827E0,1.153938770E0,9.523733139E0,-1.613659739E0,9.728153234E0
1.984682765E0,1.242473125E0,9.528518677E0,-1.618445396E0,9.744525291E0
1.987188806E0,1.323829174E0,9.506983757E0,-1.616052628E0,9.733801412E0
1.989694796E0,1.386042476E0,9.511769295E0,-1.611266971E0,9.746335214E0
1.992200785E0,1.448554993E0,9.530911446E0,-1.596910000E0,9.771729944E0
1.994706723E0,1.467697620E0,9.545269012E0,-1.596910000E0,9.788586127E0
1.997212660E0,1.482054472E0,9.550054550E0,-1.582553029E0,9.793084369E0
1.999718702E0,1.508375525E0,9.550054550E0,-1.544267893E0,9.790990857E0
2.002224692E0,1.494018674E0,9.562018394E0,-1.503589988E0,9.794134491E0
2.004730681E0,1.486840129E0,9.562018394E0,-1.465304732E0,9.787236960E0
2.007236671E0,1.479661703E0,9.585947037E0,-1.453340650E0,9.807750934E0
2.009742608E0,1.467697620E0,9.581160545E0,-1.458126307E0,9.801984800E0
2.012248546E0,1.458126307E0,9.605089188E0,-1.491625786E0,9.828978488E0
2.014754588E0,1.448554993E0,9.607481956E0,-1.520339727E0,9.834299873E0
2.017260577E0,1.450947881E0,9.590732574E0,-1.561017632E0,9.824671858E0
2.019766567E0,1.458126307E0,9.595518112E0,-1.572981834E0,9.832312649E0
2.022272504E0,1.450947881E0,9.593125343E0,-1.575374603E0,9.829298487E0
2.024778442E0,1.455733418E0,9.583553314E0,-1.570588946E0,9.819898347E0
2.027284483E0,1.443769336E0,9.581160545E0,-1.558624864E0,9.813889074E0
2.029790473E0,1.434198022E0,9.595518112E0,-1.527518153E0,9.821619190E0
2.032296463E0,1.417448282E0,9.595518112E0,-1.525125384E0,9.818815352E0
2.034802452E0,1.407876968E0,9.605089188E0,-1.546660781E0,9.830158464E0
2.037308442E0,1.376471281E0,9.609874725E0,-1.565803289E0,9.833417787E0
2.039814379E0,1.374078393E0,9.607481956E0,-1.575374603E0,9.832273700E0
2.042320317E0,1.374078393E0,9.617053032E0,-1.570588946E0,9.840861247E0
2.044826358E0,1.374078393E0,9.602696419E0,-1.544267893E0,9.822659175E0
2.047332348E0,1.357328653E0,9.600303650E0,-1.527518153E0,9.815369731E0
2.049838338E0,1.347757339E0,9.576375008E0,-1.503589988E0,9.786939817E0
2.052344275E0,1.362114310E0,9.559625626E0,-1.482054472E0,9.769251914E0
2.054850213E0,1.369292736E0,9.542876244E0,-1.505982757E0,9.757532150E0
2.057356254E0,1.407876968E0,9.533304214E0,-1.510768414E0,9.754405569E0
2.059862244E0,1.467697620E0,9.526125908E0,-1.510768414E0,9.756209936E0
2.062368233E0,1.525125384E0,9.535696983E0,-1.510768414E0,9.774351416E0
2.064874171E0,1.551446438E0,9.535696983E0,-1.510768414E0,9.778492941E0
2.067380108E0,1.580160260E0,9.540482521E0,-1.517946839E0,9.788864888E0
2.069886150E0,1.604088426E0,9.557232857E0,-1.515554070E0,9.808705506E0
2.072392140E0,1.568196177E0,9.581160545E0,-1.508375525E0,9.825124598E0
2.074898129E0,1.541875124E0,9.571589470E0,-1.498804331E0,9.810153837E0
2.077404119E0,1.503589988E0,9.571589470E0,-1.462911963E0,9.798786621E0
2.079910056E0,1.470090389E0,9.569196701E0,-1.450947881E0,9.789583291E0
2.082415994E0,1.429412484E0,9.547661781E0,-1.453340650E0,9.762851253E0
2.084922035E0,1.388435364E0,9.540482521E0,-1.446162224E0,9.748843248E0
2.087428025E0,1.374078393E0,9.538089752E0,-1.434198022E0,9.742698369E0
2.089934015E0,1.374078393E0,9.535696983E0,-1.410269856E0,9.736861376E0
2.092440004E0,1.388435364E0,9.547661781E0,-1.398006678E0,9.748847159E0
2.094945942E0,1.400399446E0,9.571589470E0,-1.410269856E0,9.775750849E0
2.097451879E0,1.405484200E0,9.583553314E0,-1.395613790E0,9.786093082E0
2.099957921E0,1.407876968E0,9.595518112E0,-1.400399446E0,9.798836870E0
2.102463910E0,1.419841170E0,9.602696419E0,-1.417448282E0,9.810040117E0
2.104969900E0,1.405484200E0,9.605089188E0,-1.415055513E0,9.809969737E0
2.107475890E0,1.407876968E0,9.607481956E0,-1.417448282E0,9.813000904E0
2.109981827E0,1.374078393E0,9.607481956E0,-1.402792215E0,9.806101518E0
2.112487765E0,1.354935765E0,9.619445801E0,-1.402792215E0,9.815162477E0
2.114993806E0,1.333400369E0,9.633803368E0,-1.415055513E0,9.828046905E0
2.117499796E0,1.302293777E0,9.619445801E0,-1.405484200E0,9.808419467E0
2.120005785E0,1.290329576E0,9.614660263E0,-1.374078393E0,9.797690229E0
2.122511723E0,1.287936807E0,9.614660263E0,-1.331007600E0,9.791427599E0
2.125017660E0,1.297508121E0,9.609874725E0,-1.321436286E0,9.786695735E0
2.127523702E0,1.333400369E0,9.609874725E0,-1.319043517E0,9.791196279E0
2.130029692E0,1.374078393E0,9.605089188E0,-1.352542996E0,9.796693437E0
2.132535681E0,1.424626827E0,9.600303650E0,-1.381256819E0,9.803227130E0
2.135041671E0,1.453340650E0,9.602696419E0,-1.412662625E0,9.814254595E0
2.137547608E0,1.455733418E0,9.593125343E0,-1.422233939E0,9.806628524E0
2.140053546E0,1.458126307E0,9.578767776E0,-1.415055513E0,9.791900048E0
2.142559588E0,1.448554993E0,9.602696419E0,-1.405484200E0,9.812516289E0
2.145065577E0,1.448554993E0,9.624231339E0,-1.422233939E0,9.835999685E0
2.147571567E0,1.390828133E0,9.636196136E0,-1.467697620E0,9.846055818E0
2.150077556E0,1.321436286E0,9.662516594E0,-1.522732496E0,9.870619790E0
2.152583494E0,1.242473125E0,9.648159981E0,-1.544267893E0,9.849644349E0
2.155089431E0,1.137188911E0,9.640981674E0,-1.558624864E0,9.832143089E0
2.157595473E0,1.010369420E0,9.602696419E0,-1.584945917E0,9.784920972E0
2.160101463E0,9.146564603E-1,9.545269012E0,-1.620838284E0,9.725012787E0
2.162607452E0,8.548358679E-1,9.502198219E0,-1.659123421E0,9.683759904E0
2.165113442E0,8.162516356E-1,9.483055115E0,-1.683051586E0,9.665777966E0
2.167619379E0,7.995018363E-1,9.487840652E0,-1.704586983E0,9.672845508E0
2.170125317E0,7.707880139E-1,9.514162064E0,-1.730908036E0,9.701001833E0
2.172631358E0,7.660023570E-1,9.542876244E0,-1.714158297E0,9.725820545E0
2.175137348E0,7.372884750E-1,9.557232857E0,-1.690230131E0,9.733507696E0
2.177643338E0,7.301099896E-1,9.578767776E0,-1.649552107E0,9.747147012E0
2.180149327E0,7.277171612E-1,9.566803932E0,-1.599302888E0,9.726822681E0
2.182655265E0,7.181459069E-1,9.564411163E0,-1.553839207E0,9.716383624E0
2.185161202E0,7.492526174E-1,9.547661781E0,-1.510768414E0,9.695444609E0
2.187667244E0,7.755736113E-1,9.547661781E0,-1.482054472E0,9.693082346E0
2.190173233E0,8.330013752E-1,9.526125908E0,-1.455733418E0,9.672648339E0
2.192679223E0,9.050851464E-1,9.523733139E0,-1.441376567E0,9.674618258E0
2.195185160E0,9.625129104E-1,9.554840088E0,-1.446162224E0,9.711476993E0
2.197691098E0,1.007976532E0,9.581160545E0,-1.424626827E0,9.738799499E0
2.200197140E0,1.053440213E0,9.590732574E0,-1.395613790E0,9.748826875E0
2.202703129E0,1.060618639E0,9.614660263E0,-1.398006678E0,9.773485895E0
2.205209119E0,1.053440213E0,9.633803368E0,-1.386042476E0,9.789842560E0
2.207715108E0,1.051047325E0,9.648159981E0,-1.357328653E0,9.799695534E0
2.210221046E0,1.029511929E0,9.645767212E0,-1.326221943E0,9.790790804E0
2.212726983E0,1.003190875E0,9.640981674E0,-1.292722464E0,9.778857343E0
2.215233025E0,9.792626500E-1,9.619445801E0,-1.271187067E0,9.752364299E0
2.217739015E0,9.601200819E-1,9.614660263E0,-1.261615753E0,9.744495721E0
2.220245004E0,9.553344250E-1,9.588339806E0,-1.278365493E0,9.720243949E0
2.222750994E0,9.385846853E-1,9.557232857E0,-1.299900889E0,9.690788586E0
2.225256931E0,9.577272534E-1,9.540482521E0,-1.302293777E0,9.676467192E0
2.227762869E0,1.003190875E0,9.554840088E0,-1.314257860E0,9.696836327E0
2.230268910E0,1.043868899E0,9.573982239E0,-1.314257860E0,9.719983123E0
2.232774900E0,1.079761267E0,9.593125343E0,-1.314257860E0,9.742751766E0
2.235280890E0,1.149153113E0,9.597910881E0,-1.335793257E0,9.758319004E0
2.237786879E0,1.192223907E0,9.595518112E0,-1.338186026E0,9.761460317E0
2.240292817E0,1.220937729E0,9.609874725E0,-1.333400369E0,9.778462953E0
2.242798754E0,1.264008522E0,9.614660263E0,-1.333400369E0,9.788634535E0
2.245304796E0,1.283151150E0,9.607481956E0,-1.333400369E0,9.784075989E0
2.247810785E0,1.287936807E0,9.619445801E0,-1.371685624E0,9.801736590E0
2.250316775E0,1.252044439E0,9.607481956E0,-1.383649707E0,9.787022598E0
2.252822713E0,1.235294700E0,9.612267494E0,-1.398006678E0,9.791632246E0
2.255328650E0,1.201795220E0,9.612267494E0,-1.390828133E0,9.786439650E0
2.257834692E0,1.170688510E0,9.621838570E0,-1.393221021E0,9.792413076E0
2.260340681E0,1.098903775E0,9.629017830E0,-1.412662625E0,9.793936367E0
2.262846671E0,1.036690354E0,9.624231339E0,-1.402792215E0,9.781021508E0
2.265352660E0,9.672985673E-1,9.612267494E0,-1.405484200E0,9.762517029E0
2.267858650E0,9.218349457E-1,9.590732574E0,-1.434198022E0,9.741091055E0
2.270364588E0,8.811569214E-1,9.583553314E0,-1.462911963E0,9.734528394E0
2.272870525E0,8.644071817E-1,9.588339806E0,-1.486840129E0,9.741363024E0
2.275376567E0,8.548358679E-1,9.593125343E0,-1.498804331E0,9.747061744E0
2.277882556E0,8.452646136E-1,9.609874725E0,-1.508375525E0,9.764187689E0
2.280388546E0,8.306085467E-1,9.621838570E0,-1.544267893E0,9.780309368E0
2.282894483E0,8.234301209E-1,9.614660263E0,-1.561017632E0,9.775300772E0
2.285400421E0,8.090731502E-1,9.600303650E0,-1.565803289E0,9.760746358E0
2.287906463E0,7.803592682E-1,9.600303650E0,-1.565803289E0,9.758408205E0
2.290412452E0,7.683951855E-1,9.593125343E0,-1.568196177E0,9.750780700E0
2.292918442E0,7.779664397E-1,9.600303650E0,-1.558624864E0,9.757067870E0
2.295424431E0,7.827520967E-1,9.605089188E0,-1.556231976E0,9.761777354E0
2.297930369E0,8.186444640E-1,9.590732574E0,-1.532303810E0,9.746808967E0
2.300436306E0,8.979067206E-1,9.593125343E0,-1.505982757E0,9.752039499E0
2.302942348E0,9.696913958E-1,9.578767776E0,-1.515554070E0,9.746281222E0
2.305448338E0,1.024726272E0,9.573982239E0,-1.491625786E0,9.743518221E0
2.307954327E0,1.108475089E0,9.569196701E0,-1.477268934E0,9.745797352E0
2.310460317E0,1.223330617E0,9.595518112E0,-1.450947881E0,9.781398437E0
2.312966254E0,1.299900889E0,9.633803368E0,-1.448554993E0,9.828439409E0
2.315472192E0,1.345364571E0,9.636196136E0,-1.431805253E0,9.834447015E0
2.317978233E0,1.362114310E0,9.624231339E0,-1.402792215E0,9.820845699E0
2.320484223E0,1.374078393E0,9.600303650E0,-1.335793257E0,9.789701999E0
2.322990213E0,1.378864050E0,9.573982239E0,-1.316650629E0,9.761965522E0
2.325496202E0,1.407876968E0,9.559625626E0,-1.302293777E0,9.750104038E0
2.328002140E0,1.417448282E0,9.554840088E0,-1.309472203E0,9.747761086E0
2.330508077E0,1.424626827E0,9.554840088E0,-1.295115232E0,9.746889461E0
2.333014119E0,1.455733418E0,9.573982239E0,-1.311864972E0,9.772475909E0
2.335520108E0,1.491625786E0,9.602696419E0,-1.333400369E0,9.808908326E0
2.338026098E0,1.498804331E0,9.621838570E0,-1.381256819E0,9.835347593E0
2.340532088E0,1.527518153E0,9.648159981E0,-1.390828133E0,9.866848819E0
2.343038025E0,1.546660781E0,9.645767212E0,-1.390828133E0,9.867491453E0
2.345543963E0,1.537089467E0,9.655338287E0,-1.412662625E0,9.878452164E0
2.348050004E0,1.522732496E0,9.650552750E0,-1.443769336E0,9.876049439E0
2.350555994E0,1.510768414E0,9.657731056E0,-1.486840129E0,9.887612650E0
2.353061983E0,1.489233017E0,9.664909363E0,-1.539482236E0,9.899408746E0
2.355567973E0,1.458126307E0,9.667302132E0,-1.563410521E0,9.900864371E0
2.358073910E0,1.431805253E0,9.664909363E0,-1.589731574E0,9.898878005E0
2.360579848E0,1.390828133E0,9.636196136E0,-1.587338686E0,9.864599484E0
2.363085890E0,1.309472203E0,9.597910881E0,-1.575374603E0,9.814092718E0
2.365591879E0,1.256830096E0,9.583553314E0,-1.575374603E0,9.793156854E0
2.368097869E0,1.225723386E0,9.571589470E0,-1.592124343E0,9.780213838E0
2.370603858E0,1.208973646E0,9.550054550E0,-1.604088426E0,9.759009113E0
2.373109796E0,1.204187989E0,9.557232857E0,-1.628016710E0,9.769401568E0
2.375615733E0,1.218544960E0,9.564411163E0,-1.649552107E0,9.781811431E0
2.378121775E0,1.220937729E0,9.559625626E0,-1.685444474E0,9.783550180E0
2.380627765E0,1.237687469E0,9.562018394E0,-1.702194214E0,9.790890214E0
2.383133754E0,1.266401410E0,9.559625626E0,-1.718943954E0,9.795150992E0
2.385639744E0,1.278365493E0,9.581160545E0,-1.747657895E0,9.822787987E0
2.388145681E0,1.280758262E0,9.569196701E0,-1.742872238E0,9.810579538E0
2.390651619E0,1.278365493E0,9.566803932E0,-1.721336842E0,9.804129555E0
2.393157660E0,1.252044439E0,9.578767776E0,-1.704586983E0,9.809486438E0
2.395663650E0,1.220937729E0,9.573982239E0,-1.690230131E0,9.798403071E0
2.398169640E0,1.189831018E0,9.557232857E0,-1.668694735E0,9.774504583E0
2.400675629E0,1.156331539E0,9.538089752E0,-1.618445396E0,9.743286112E0
2.403181567E0,1.127617717E0,9.521340370E0,-1.594517231E0,9.719564258E0
2.405687504E0,1.094118118E0,9.528518677E0,-1.549053550E0,9.715417105E0
2.408193546E0,1.065404296E0,9.521340370E0,-1.508375525E0,9.698773401E0
2.410699535E0,1.039083242E0,9.509376526E0,-1.503589988E0,9.683424949E0
2.413205525E0,9.912267923E-1,9.535696983E0,-1.498804331E0,9.703528324E0
2.415711515E0,9.649057388E-1,9.545269012E0,-1.482054472E0,9.707712865E0
2.418217452E0,9.385846853E-1,9.550054550E0,-1.467697620E0,9.707657772E0
2.420723390E0,9.074779749E-1,9.571589470E0,-1.460519075E0,9.724811424E0
2.423229431E0,8.691928387E-1,9.583553314E0,-1.431805253E0,9.728826065E0
2.425735421E0,8.330013752E-1,9.588339806E0,-1.417448282E0,9.728273801E0
2.428241410E0,7.851449251E-1,9.614660263E0,-1.400399446E0,9.747782473E0
2.430747400E0,7.588238716E-1,9.626625061E0,-1.381256819E0,9.754772890E0
2.433253338E0,7.348956466E-1,9.612267494E0,-1.354935765E0,9.735071079E0
2.435759275E0,7.061817646E-1,9.605089188E0,-1.345364571E0,9.724527588E0
2.438265317E0,7.013961077E-1,9.617053032E0,-1.347757339E0,9.736329666E0
2.440771306E0,6.966105103E-1,9.593125343E0,-1.340578914E0,9.711357880E0
2.443277296E0,6.774678826E-1,9.576375008E0,-1.311864972E0,9.689525826E0
2.445783285E0,6.846463680E-1,9.547661781E0,-1.287936807E0,9.658435037E0
2.448289275E0,7.396813035E-1,9.521340370E0,-1.271187067E0,9.634260088E0
2.450795213E0,7.827520967E-1,9.504590988E0,-1.287936807E0,9.623343074E0
2.453301150E0,8.620143533E-1,9.497411728E0,-1.287936807E0,9.623028603E0
2.455807192E0,9.625129104E-1,9.499805450E0,-1.287936807E0,9.634911308E0
2.458313181E0,1.070189953E0,9.523733139E0,-1.280758262E0,9.668874865E0
2.460819171E0,1.163509965E0,9.559625626E0,-1.302293777E0,9.717827258E0
2.463325160E0,1.280758262E0,9.595518112E0,-1.304686546E0,9.768137824E0
2.465831098E0,1.374078393E0,9.607481956E0,-1.321436286E0,9.794794272E0
2.468337035E0,1.460519075E0,9.600303650E0,-1.328614831E0,9.801232755E0
2.470843077E0,1.517946839E0,9.588339806E0,-1.321436286E0,9.797275983E0
2.473349067E0,1.565803289E0,9.600303650E0,-1.292722464E0,9.812680647E0
2.475855056E0,1.596910000E0,9.571589470E0,-1.292722464E0,9.789615820E0
2.478361046E0,1.623231053E0,9.562018394E0,-1.309472203E0,9.786817270E0
2.480866983E0,1.630409479E0,9.550054550E0,-1.323829174E0,9.778256525E0
2.483372921E0,1.642373681E0,9.559625626E0,-1.333400369E0,9.790903429E0
2.485878963E0,1.628016710E0,9.593125343E0,-1.359721422E0,9.824832549E0
2.488384952E0,1.611266971E0,9.581160545E0,-1.383649707E0,9.813730440E0
2.490890942E0,1.587338686E0,9.595518112E0,-1.417448282E0,9.828670896E0
2.493396931E0,1.534696579E0,9.581160545E0,-1.427019596E0,9.807666181E0
2.495902869E0,1.508375525E0,9.588339806E0,-1.453340650E0,9.814461575E0
2.498408806E0,1.467697620E0,9.576375008E0,-1.472483277E0,9.799454148E0
2.500914848E0,1.419841170E0,9.569196701E0,-1.486840129E0,9.787551687E0
2.503420838E0,1.366899967E0,9.564411163E0,-1.494018674E0,9.776424102E0
2.505926827E0,1.321436286E0,9.562018394E0,-1.494018674E0,9.767828901E0
2.508432765E0,1.275972724E0,9.569196701E0,-1.496411443E0,9.769180063E0
2.510938702E0,1.244866014E0,9.559625626E0,-1.515554070E0,9.758741601E0
2.513444744E0,1.206580877E0,9.573982239E0,-1.534696579E0,9.770991092E0
2.515950733E0,1.182652593E0,9.562018394E0,-1.532303810E0,9.755963197E0
2.518456723E0,1.158724308E0,9.557232857E0,-1.525125384E0,9.747273944E0
2.520962713E0,1.137188911E0,9.540482521E0,-1.498804331E0,9.724218209E0
2.523468702E0,1.118046403E0,9.511769295E0,-1.496411443E0,9.693452949E0
2.525974640E0,1.113260746E0,9.502198219E0,-1.482054472E0,9.681301872E0
2.528480577E0,1.120439172E0,9.480662346E0,-1.484447360E0,9.661362555E0
2.530986619E0,1.141974568E0,9.451948166E0,-1.477268934E0,9.634612268E0
2.533492608E0,1.177866936E0,9.459127426E0,-1.494018674E0,9.648551911E0
2.535998598E0,1.230509043E0,9.447162628E0,-1.489233017E0,9.642657787E0
2.538504588E0,1.285543919E0,9.487840652E0,-1.513161182E0,9.693368877E0
2.541010525E0,1.340578914E0,9.523733139E0,-1.525125384E0,9.737795036E0
2.543516463E0,1.393221021E0,9.533304214E0,-1.517946839E0,9.753415641E0
2.546022504E0,1.405484200E0,9.538089752E0,-1.522732496E0,9.760597124E0
2.548528494E0,1.434198022E0,9.538089752E0,-1.498804331E0,9.761070357E0
2.551034483E0,1.438983679E0,9.533304214E0,-1.453340650E0,9.750218578E0
2.553540473E0,1.434198022E0,9.530911446E0,-1.407876968E0,9.740498679E0
2.556046410E0,1.419841170E0,9.502198219E0,-1.376471281E0,9.705791732E0
2.558552348E0,1.417448282E0,9.478269577E0,-1.335793257E0,9.676316315E0
2.561058390E0,1.417448282E0,9.444769859E0,-1.287936807E0,9.636992194E0
2.563564379E0,1.458126307E0,9.411270142E0,-1.194616675E0,9.598189778E0
2.566070369E0,1.479661703E0,9.430413246E0,-1.058225870E0,9.604266486E0
2.568576358E0,1.508375525E0,9.461520195E0,-8.883354068E-1,9.622094414E0
2.571082296E0,1.508375525E0,9.533304214E0,-6.870391965E-1,9.676316904E0
2.573588233E0,1.474876046E0,9.595518112E0,-5.147559643E-1,9.721841435E0
2.576094275E0,1.412662625E0,9.636196136E0,-5.243272781E-1,9.753297431E0
2.578600265E0,1.352542996E0,9.669695854E0,-7.325028181E-1,9.791269113E0
2.581106254E0,1.328614831E0,9.657731056E0,-1.077368379E0,9.808043084E0
2.583612244E0,1.359721422E0,9.643374443E0,-1.482054472E0,9.850888206E0
2.586118233E0,1.431805253E0,9.619445801E0,-1.852941990E0,9.900363519E0
2.588624171E0,1.551446438E0,9.597910881E0,-2.121237278E0,9.951207310E0
2.591130108E0,1.683051586E0,9.600303650E0,-2.295913219E0,1.001347644E1
2.593636150E0,1.824228168E0,9.626625061E0,-2.295913219E0,1.006334616E1
2.596142140E0,1.963011861E0,9.629017830E0,-2.178664923E0,1.006568332E1
2.598648129E0,2.051845312E0,9.640981674E0,-1.975275040E0,1.005287562E1
2.601154119E0,2.106880426E0,9.602696419E0,-1.754836321E0,9.986499595E0
2.603660056E0,2.126022816E0,9.576375008E0,-1.572981834E0,9.934847918E0
2.606165994E0,2.135594130E0,9.559625626E0,-1.477268934E0,9.906034923E0
2.608672035E0,2.126022816E0,9.526125908E0,-1.429412484E0,9.864596691E0
2.611178025E0,2.126022816E0,9.504590988E0,-1.453340650E0,9.847305312E0
2.613684015E0,2.102094650E0,9.511769295E0,-1.505982757E0,9.857004672E0
2.616190004E0,2.080559254E0,9.502198219E0,-1.582553029E0,9.855200246E0
2.618695942E0,2.075773716E0,9.495018959E0,-1.632802367E0,9.855468793E0
2.621201879E0,2.047059774E0,9.499805450E0,-1.709372640E0,9.867051846E0
2.623707921E0,1.994417667E0,9.516554832E0,-1.757229090E0,9.880808256E0
2.626213910E0,1.919941068E0,9.506983757E0,-1.783550143E0,9.861539686E0
2.628719900E0,1.848156333E0,9.497411728E0,-1.764407635E0,9.835123063E0
2.631225890E0,1.812264085E0,9.485447884E0,-1.747657895E0,9.813884592E0
2.633731827E0,1.771586061E0,9.463912964E0,-1.706979871E0,9.778442925E0
2.636237765E0,1.776371717E0,9.451948166E0,-1.680658817E0,9.763167246E0
2.638743806E0,1.771586061E0,9.418449402E0,-1.692622900E0,9.731941152E0
2.641249796E0,1.778764486E0,9.389735222E0,-1.730908036E0,9.712217732E0
2.643755785E0,1.754836321E0,9.356235504E0,-1.773978829E0,9.683263614E0
2.646261775E0,1.692622900E0,9.325128555E0,-1.757229090E0,9.639027385E0
2.648767713E0,1.635195136E0,9.320343018E0,-1.683051586E0,9.611208027E0
2.651273650E0,1.529910922E0,9.339486122E0,-1.592124343E0,9.596952036E0
2.653779692E0,1.450947881E0,9.329915047E0,-1.534696579E0,9.565973977E0
2.656285681E0,1.405484200E0,9.334700584E0,-1.534696579E0,9.563854580E0
2.658791671E0,1.371685624E0,9.346664429E0,-1.582553029E0,9.578420093E0
2.661297660E0,1.331007600E0,9.370592117E0,-1.644766450E0,9.606499598E0
2.663803650E0,1.287936807E0,9.356235504E0,-1.683051586E0,9.593257354E0
2.666309588E0,1.237687469E0,9.365806580E0,-1.671087503E0,9.593890587E0
2.668815525E0,1.187438250E0,9.416056633E0,-1.637588024E0,9.630878810E0
2.671321567E0,1.165902853E0,9.451948166E0,-1.596910000E0,9.656540537E0
2.673827556E0,1.144367456E0,9.466305733E0,-1.537089467E0,9.658321031E0
2.676333546E0,1.170688510E0,9.451948166E0,-1.532303810E0,9.646646603E0
2.678839535E0,1.180259824E0,9.444769859E0,-1.561017632E0,9.645385788E0
2.681345473E0,1.199402332E0,9.437591553E0,-1.577767372E0,9.643445969E0
2.683851410E0,1.189831018E0,9.449555397E0,-1.515554070E0,9.643998092E0
2.686357452E0,1.182652593E0,9.483055115E0,-1.484447360E0,9.671121208E0
2.688863442E0,1.185045362E0,9.554840088E0,-1.462911963E0,9.738552923E0
2.691369431E0,1.163509965E0,9.609874725E0,-1.453340650E0,9.788546711E0
2.693875421E0,1.098903775E0,9.588339806E0,-1.405484200E0,9.752909082E0
2.696381358E0,1.027119160E0,9.514162064E0,-1.314257860E0,9.659271570E0
2.698887296E0,9.912267923E-1,9.490233421E0,-1.302293777E0,9.630318272E0
2.701393338E0,9.696913958E-1,9.428020477E0,-1.261615753E0,9.561356903E0
2.703899327E0,1.007976532E0,9.346664429E0,-1.144367456E0,9.470254986E0
2.706405317E0,1.115653515E0,9.313164711E0,-1.091725349E0,9.443070684E0
2.708911306E0,1.259222865E0,9.320343018E0,-1.065404296E0,9.465174193E0
2.711417296E0,1.443769336E0,9.413662910E0,-1.065404296E0,9.583141740E0
2.713923285E0,1.575374603E0,9.569196701E0,-1.187438250E0,9.770431937E0
2.716429223E0,1.589731574E0,9.710372925E0,-1.299900889E0,9.925136328E0
2.718935160E0,1.553839207E0,9.696016312E0,-1.247258782E0,9.898626322E0
2.721441202E0,1.539482236E0,9.605089188E0,-1.225723386E0,9.804597986E0
2.723947192E0,1.558624864E0,9.562018394E0,-1.213759303E0,9.763949963E0
2.726453181E0,1.589731574E0,9.492626190E0,-1.156331539E0,9.694034304E0
2.728959171E0,1.656730533E0,9.480662346E0,-1.146760225E0,9.692408039E0
2.731465108E0,1.695015788E0,9.478269577E0,-1.156331539E0,9.697823226E0
2.733971046E0,1.747657895E0,9.483055115E0,-1.175474167E0,9.714133103E0
2.736477088E0,1.776371717E0,9.447162628E0,-1.204187989E0,9.687850480E0
2.738983077E0,1.793121457E0,9.358628273E0,-1.189831018E0,9.602859239E0
2.741489067E0,1.817049742E0,9.344271660E0,-1.261615753E0,9.602539087E0
2.743995004E0,1.807478428E0,9.346664429E0,-1.359721422E0,9.616441990E0
2.746500942E0,1.759621978E0,9.370592117E0,-1.448554993E0,9.643784408E0
2.749006983E0,1.706979871E0,9.432806015E0,-1.541875124E0,9.709221827E0
2.751512973E0,1.671087503E0,9.454340935E0,-1.637588024E0,9.739547756E0
2.754018963E0,1.644766450E0,9.358628273E0,-1.561017632E0,9.629431753E0
2.756524952E0,1.671087503E0,9.231510162E0,-1.467697620E0,9.495654250E0
2.759030942E0,1.776371717E0,9.176474571E0,-1.477268934E0,9.462848701E0
2.761536879E0,1.912762642E0,9.162117958E0,-1.527518153E0,9.483479220E0
2.764042817E0,2.061416626E0,9.198010445E0,-1.587338686E0,9.558895268E0
2.766548858E0,2.193022013E0,9.248259544E0,-1.651944876E0,9.647205400E0
2.769054848E0,2.300698996E0,9.296415329E0,-1.754836321E0,9.736323965E0
2.771560838E0,2.377269268E0,9.380164146E0,-1.824228168E0,9.847166953E0
2.774066827E0,2.408375978E0,9.483055115E0,-1.888834357E0,9.964753102E0
2.776572817E0,2.370090723E0,9.533304214E0,-1.912762642E0,1.000799082E1
2.779078754E0,2.303091764E0,9.528518677E0,-1.910369754E0,9.987312574E0
2.781584692E0,2.188236237E0,9.514162064E0,-1.922333837E0,9.950026381E0
2.784090733E0,2.051845312E0,9.449555397E0,-1.819442511E0,9.839437862E0
2.786596723E0,1.941476464E0,9.387342453E0,-1.740479350E0,9.742730498E0
2.789102713E0,1.857727647E0,9.322735786E0,-1.673480392E0,9.652206544E0
2.791608702E0,1.826620936E0,9.327521324E0,-1.663909078E0,9.649237872E0
2.794114640E0,1.790728688E0,9.337093353E0,-1.673480392E0,9.653422095E0
2.796620577E0,1.766800404E0,9.396913528E0,-1.706979871E0,9.712741519E0
2.799126619E0,1.716551185E0,9.459127426E0,-1.745265007E0,9.770751741E0
2.801632608E0,1.642373681E0,9.502198219E0,-1.836192250E0,9.816351883E0
2.804138598E0,1.553839207E0,9.562018394E0,-1.927119493E0,9.877266909E0
2.806644588E0,1.455733418E0,9.545269012E0,-1.963011861E0,9.853158675E0
2.809150525E0,1.395613790E0,9.511769295E0,-1.924726725E0,9.804390136E0
2.811656463E0,1.354935765E0,9.392127991E0,-1.838585138E0,9.665832320E0
2.814162504E0,1.364507079E0,9.301200867E0,-1.788335800E0,9.569344913E0
2.816668494E0,1.431805253E0,9.286844254E0,-1.872084618E0,9.581244350E0
2.819174483E0,1.520339727E0,9.305986404E0,-1.845763564E0,9.608311974E0
2.821680473E0,1.601695657E0,9.277272224E0,-1.790728688E0,9.583314569E0
2.824186463E0,1.639980793E0,9.250652313E0,-1.829013824E0,9.571279789E0
2.826692400E0,1.716551185E0,9.277272224E0,-1.840977907E0,9.612675359E0
2.829198338E0,1.762014747E0,9.337093353E0,-1.886441588E0,9.687345876E0
2.831704379E0,1.790728688E0,9.394520760E0,-1.850549221E0,9.741060618E0
2.834210369E0,1.766800404E0,9.411270142E0,-1.800299883E0,9.743442359E0
2.836716358E0,1.750050664E0,9.372985840E0,-1.766800404E0,9.697274078E0
2.839222348E0,1.740479350E0,9.377771378E0,-1.776371717E0,9.701925626E0
2.841728338E0,1.747657895E0,9.358628273E0,-1.762014747E0,9.682093123E0
2.844234275E0,1.747657895E0,9.277272224E0,-1.668694735E0,9.586794572E0
2.846740213E0,1.785943031E0,9.229117393E0,-1.623231053E0,9.539448591E0
2.849246254E0,1.824228168E0,9.150154114E0,-1.527518153E0,9.454440249E0
2.851752244E0,1.922333837E0,9.078369141E0,-1.436590910E0,9.390204847E0
2.854258233E0,2.015953064E0,9.121439934E0,-1.496411443E0,9.460654334E0
2.856764223E0,2.104487419E0,9.236295700E0,-1.561017632E0,9.600770886E0
2.859270160E0,2.102094650E0,9.327521324E0,-1.620838284E0,9.697864338E0
2.861776098E0,2.051845312E0,9.442377090E0,-1.702194214E0,9.811524828E0
2.864282140E0,1.941476464E0,9.444769859E0,-1.661516190E0,9.784357138E0
2.866788129E0,1.843370795E0,9.406484604E0,-1.637588024E0,9.724282134E0
2.869294119E0,1.747657895E0,9.365806580E0,-1.639980793E0,9.667583876E0
2.871800108E0,1.685444474E0,9.365806580E0,-1.632802367E0,9.655314574E0
2.874306098E0,1.673480392E0,9.420842171E0,-1.718943954E0,9.721500509E0
2.876812035E0,1.680658817E0,9.353842735E0,-1.742872238E0,9.662121486E0
2.879317973E0,1.706979871E0,9.178867340E0,-1.632802367E0,9.477944371E0
2.881824015E0,1.840977907E0,9.037691116E0,-1.568196177E0,9.355656023E0
2.884330004E0,2.020738840E0,9.001798630E0,-1.675873160E0,9.376796621E0
2.886835994E0,2.181057930E0,9.037691116E0,-1.733300924E0,9.457336121E0
2.889341983E0,2.324627161E0,9.116654396E0,-1.819442511E0,9.582674463E0
2.891847921E0,2.470589399E0,9.183652878E0,-1.850549221E0,9.688540890E0
2.894353858E0,2.621636391E0,9.238688469E0,-1.912762642E0,9.792088792E0
2.896859900E0,2.714956284E0,9.375378609E0,-2.078166485E0,9.979353066E0
2.899365890E0,2.710170746E0,9.368199348E0,-2.090130568E0,9.973807212E0
2.901871879E0,2.724527597E0,9.356235504E0,-2.068595171E0,9.961991740E0
2.904377869E0,2.758027315E0,9.325128555E0,-2.216950178E0,9.973946327E0
2.906883806E0,2.769991398E0,9.162117958E0,-2.042274237E0,9.787141660E0
2.909389744E0,2.817847729E0,9.087940216E0,-2.027917147E0,9.728482469E0
2.911895785E0,2.820240498E0,9.087940216E0,-2.066202402E0,9.737227850E0
2.914401775E0,2.784348249E0,9.075976372E0,-2.023131609E0,9.706647402E0
2.916907765E0,2.731706142E0,9.068798065E0,-1.999203324E0,9.679986091E0
2.919413754E0,2.664707184E0,9.085547447E0,-2.025524378E0,9.682488616E0
2.921919744E0,2.602493763E0,9.157332420E0,-2.097309113E0,9.748251964E0
2.924425681E0,2.513660192E0,9.265308380E0,-2.171486616E0,9.842752718E0
2.926931619E0,2.415554523E0,9.277272224E0,-2.164308071E0,9.827864112E0
2.929437660E0,2.343769789E0,9.245866776E0,-2.111665964E0,9.769260074E0
2.931943650E0,2.295913219E0,9.270093918E0,-2.193022013E0,9.798734832E0
2.934449640E0,2.202593327E0,9.277272224E0,-2.207378864E0,9.787324391E0
2.936955629E0,2.090130568E0,9.212367058E0,-2.059023857E0,9.668295188E0
2.939461619E0,2.035095692E0,9.111868858E0,-1.960619092E0,9.540010262E0
2.941967556E0,2.080559254E0,9.073583603E0,-1.893620014E0,9.499707520E0
2.944473494E0,2.118844509E0,9.107083321E0,-1.862513304E0,9.534014080E0
2.946979535E0,2.137987137E0,9.193224907E0,-1.836192250E0,9.615507016E0
2.949485525E0,2.142772675E0,9.233902931E0,-1.881655931E0,9.664215805E0
2.951991515E0,2.111665964E0,9.267701149E0,-1.992024899E0,9.711723891E0
2.954497504E0,2.094916344E0,9.317950249E0,-2.104487419E0,9.779659433E0
2.957003442E0,2.023131609E0,9.353842735E0,-2.276770830E0,9.837231360E0
2.959509379E0,1.931905150E0,9.289237022E0,-2.257628202E0,9.752900444E0
2.962015421E0,1.840977907E0,9.119047165E0,-2.193022013E0,9.558010588E0
2.964521410E0,1.819442511E0,8.956335068E0,-2.106880426E0,9.378979370E0
2.967027400E0,1.857727647E0,8.906085968E0,-2.111665964E0,9.339628067E0
2.969533390E0,1.905584097E0,8.925228119E0,-2.190629244E0,9.385616879E0
2.972039379E0,1.987239242E0,8.992227554E0,-2.281556368E0,9.487611694E0
2.974545317E0,2.070987940E0,9.080761909E0,-2.408375978E0,9.620265212E0
2.977051254E0,2.154736757E0,9.150154114E0,-2.547458887E0,9.739494729E0
2.979557296E0,2.154736757E0,9.188439369E0,-2.580958366E0,9.784255446E0
2.982063285E0,2.169093609E0,9.169296265E0,-2.542673111E0,9.759413283E0
2.984569275E0,2.195414782E0,9.171689034E0,-2.499303341E0,9.756343730E0
2.987075265E0,2.243271112E0,9.186046600E0,-2.432304144E0,9.763801559E0
2.989581254E0,2.322234392E0,9.126225471E0,-2.185843468E0,9.667402733E0
2.992087192E0,2.358126640E0,9.073583603E0,-2.092523336E0,9.605692821E0
2.994593129E0,2.355733871E0,9.023334503E0,-2.051845312E0,9.548828034E0
2.997099171E0,2.396411896E0,9.260522842E0,-1.968096614E0,9.765934547E0
2.999605160E0,2.554637194E0,9.705587387E0,-2.403590441E0,1.031997310E1
3.002111150E0,2.401197433E0,9.296415329E0,-2.758027315E0,9.989784870E0
3.004617140E0,2.303091764E0,8.896514893E0,-2.537887573E0,9.533786354E0
3.007123129E0,2.389233351E0,8.736195564E0,-2.518445730E0,9.400644544E0
3.009629067E0,2.612065077E0,8.774480820E0,-2.621636391E0,9.522991914E0
3.012135004E0,2.894418001E0,8.913264275E0,-2.638386011E0,9.735759669E0
3.014641046E0,3.110071182E0,8.997013092E0,-2.655135870E0,9.882739186E0
3.017147035E0,3.318246841E0,8.999405861E0,-2.638386011E0,9.947921828E0
3.019653025E0,3.471387386E0,8.989834785E0,-2.484946251E0,9.952015762E0
3.022159015E0,3.634099483E0,9.001798630E0,-2.456232548E0,1.001359755E1
3.024664952E0,3.809074640E0,8.989834785E0,-2.386840582E0,1.005102915E1
3.027170890E0,3.962215185E0,8.915657043E0,-2.262413740E0,1.001531855E1
3.029676931E0,4.122534275E0,8.853444099E0,-2.114058733E0,9.992397390E0
3.032182921E0,4.268795490E0,8.824729919E0,-2.092523336E0,1.002382796E1
3.034688910E0,4.311866283E0,8.863015175E0,-2.111665964E0,1.007989891E1
3.037194900E0,4.309473515E0,8.953942299E0,-2.183450699E0,1.017408972E1
3.039700890E0,4.237689018E0,9.035298347E0,-2.228914261E0,1.022558963E1
3.042206879E0,4.105784416E0,9.061619759E0,-2.197807550E0,1.018826660E1
3.044712817E0,3.959822416E0,9.073583603E0,-2.152343988E0,1.013127325E1
3.047218754E0,3.763610840E0,9.068798065E0,-2.126022816E0,1.004628478E1
3.049724796E0,3.502494097E0,9.018548965E0,-2.063809633E0,9.892471913E0
3.052230785E0,3.248854876E0,8.968298912E0,-2.094916344E0,9.765967329E0
3.054736775E0,3.037987471E0,8.910871506E0,-2.149951220E0,9.656877814E0
3.057242765E0,2.839383125E0,8.860622406E0,-2.303091764E0,9.585246874E0
3.059748702E0,2.679064035E0,8.815158844E0,-2.458625317E0,9.535682881E0
3.062254640E0,2.612065077E0,8.805587769E0,-2.609672308E0,9.548384652E0
3.064760681E0,2.578565598E0,8.784051895E0,-2.741277456E0,9.556315730E0
3.067266671E0,2.571387053E0,8.786444664E0,-2.875275612E0,9.595876773E0
3.069772660E0,2.616850615E0,8.805587769E0,-2.892025232E0,9.630684972E0
3.072278650E0,2.662314177E0,8.843872070E0,-2.923131943E0,9.687450146E0
3.074784640E0,2.695813894E0,8.877371788E0,-2.932703257E0,9.730153689E0
3.077290577E0,2.736491680E0,8.944371223E0,-3.014059305E0,9.827243601E0
3.079796515E0,2.724527597E0,9.073583603E0,-3.222533941E0,1.000688238E1
3.082302556E0,2.667099953E0,9.229117393E0,-3.485744476E0,1.021961078E1
3.084808546E0,2.520838737E0,9.291629791E0,-3.600599766E0,1.027878061E1
3.087314535E0,2.382055044E0,9.181260109E0,-3.638885021E0,1.015929169E1
3.089820525E0,2.231307030E0,8.956335068E0,-3.497708559E0,9.870594413E0
3.092326515E0,2.090130568E0,8.819944382E0,-3.492922783E0,9.713937114E0
3.094832452E0,1.939083695E0,8.748159409E0,-3.500101328E0,9.619825774E0
3.097338390E0,1.802692771E0,8.738588333E0,-3.385245800E0,9.543192150E0
3.099844431E0,1.773978829E0,8.786444664E0,-3.294318676E0,9.549929123E0
3.102350421E0,1.833799481E0,8.898907661E0,-3.291925669E0,9.663858066E0
3.104856410E0,1.888834357E0,9.030512810E0,-3.392424345E0,9.829872826E0
3.107362400E0,1.958226204E0,9.064012527E0,-3.313461065E0,9.847334522E0
3.109868390E0,2.063809633E0,9.059226990E0,-3.208176851E0,9.829613551E0
3.112374327E0,2.209771633E0,9.147761345E0,-3.263211966E0,9.960581340E0
3.114880265E0,2.334198475E0,9.337093353E0,-3.449851990E0,1.022405368E1
3.117386306E0,2.372483730E0,9.533304214E0,-3.727718592E0,1.050754273E1
3.119892296E0,2.305484533E0,9.490233421E0,-3.655933857E0,1.042811784E1
3.122398285E0,2.255235434E0,9.344271660E0,-3.552743435E0,1.024809668E1
3.124904275E0,2.226521492E0,9.183652878E0,-3.468994617E0,1.006632017E1
3.127410265E0,2.212164640E0,9.080761909E0,-3.234498024E0,9.890191440E0
3.129916202E0,2.274377823E0,9.032905579E0,-3.028416157E0,9.794768098E0
3.132422140E0,2.401197433E0,9.133403778E0,-2.923131943E0,9.885823893E0
3.134928181E0,2.484946251E0,9.339486122E0,-3.054737091E0,1.013569818E1
3.137434171E0,2.475374937E0,9.420842171E0,-3.198605776E0,1.025235715E1
3.139940160E0,2.384447813E0,9.298808098E0,-3.126821041E0,1.009606028E1
3.142446150E0,2.327019930E0,9.013762474E0,-2.987738132E0,9.776989048E0
3.144952140E0,2.315055847E0,8.803194046E0,-2.801098108E0,9.523752391E0
3.147458077E0,2.425125837E0,8.796015739E0,-2.710170746E0,9.518201179E0
3.149964015E0,2.566601276E0,8.980263710E0,-2.722134829E0,9.728442652E0
3.152470056E0,2.516052961E0,9.025727272E0,-2.590529680E0,9.721374353E0
3.154976046E0,2.408375978E0,8.872586250E0,-2.202593327E0,9.453807645E0
3.157482035E0,2.391626120E0,8.807980537E0,-2.116451740E0,9.369085580E0
3.159988025E0,2.475374937E0,8.855836868E0,-2.264806747E0,9.470093839E0
3.162494015E0,2.616850615E0,8.843872070E0,-2.171486616E0,9.475090208E0
3.164999952E0,2.839383125E0,8.930013657E0,-2.350948334E0,9.660962608E0
3.167505890E0,3.028416157E0,9.095118523E0,-2.748456001E0,9.972286385E0
3.170011931E0,3.157927752E0,9.099904060E0,-2.970988512E0,1.008005627E1
3.172517921E0,3.212962627E0,8.975478172E0,-2.841775894E0,9.947764950E0
3.175023910E0,3.301496983E0,8.970691681E0,-2.760420084E0,9.949528160E0
3.177529900E0,3.433102369E0,9.016156197E0,-2.808276415E0,1.004806851E1
3.180035890E0,3.559921980E0,9.023334503E0,-2.592922449E0,1.004075978E1
3.182541827E0,3.703790426E0,9.083154678E0,-2.614457846E0,1.015170686E1
3.185047765E0,3.708575964E0,9.073583603E0,-2.736491680E0,1.017702519E1
3.187553806E0,3.722932816E0,8.973084450E0,-2.779562712E0,1.010457531E1
3.190059796E0,3.816252947E0,8.896514893E0,-2.992523909E0,1.013247073E1
3.192565785E0,3.892823458E0,8.870193481E0,-3.169891834E0,1.019228243E1
3.195071775E0,3.986143351E0,8.879764557E0,-3.387638569E0,1.030609783E1
3.197577713E0,4.060320854E0,8.757730484E0,-3.227319479E0,1.017839082E1
3.200083650E0,4.172783375E0,8.692825317E0,-3.107678413E0,1.013089326E1
3.202589692E0,4.309473515E0,8.779266357E0,-3.313461065E0,1.032599167E1
3.205095681E0,4.395615101E0,8.831908226E0,-3.332603693E0,1.041298624E1
3.207601671E0,4.419543266E0,8.851051331E0,-3.413959742E0,1.046559093E1
3.210107660E0,4.371686935E0,8.812766075E0,-3.550350666E0,1.045856025E1
3.212613650E0,4.340580463E0,8.712266922E0,-3.663112402E0,1.040012626E1
3.215119588E0,4.347758770E0,8.640183449E0,-3.715754509E0,1.036159292E1
3.217625525E0,4.390829563E0,8.573184013E0,-3.624528170E0,1.029155347E1
3.220131567E0,4.431507587E0,8.451150894E0,-3.483351469E0,1.015844222E1
3.222637556E0,4.517649174E0,8.448758125E0,-3.416352510E0,1.017163371E1
3.225143546E0,4.620540619E0,8.623434067E0,-3.593421459E0,1.042236482E1
3.227649535E0,4.630111694E0,8.951549530E0,-4.026821613E0,1.085280911E1
3.230155525E0,4.508078098E0,8.985049248E0,-3.909573078E0,1.078603911E1
3.232661515E0,4.314259052E0,8.824729919E0,-3.689433336E0,1.049288367E1
3.235167452E0,4.098606110E0,8.577970505E0,-3.440280676E0,1.011017711E1
3.237673390E0,3.986143351E0,8.446364403E0,-3.229712248E0,9.882380869E0
3.240179431E0,3.940679789E0,8.472685814E0,-3.073879719E0,9.836874434E0
3.242685421E0,3.923929930E0,8.556434631E0,-3.042773008E0,9.892839192E0
3.245191410E0,3.945465326E0,8.618648529E0,-3.100499868E0,9.973008500E0
3.247697400E0,3.981357813E0,8.654540062E0,-3.232105255E0,1.005976034E1
3.250203390E0,4.014857292E0,8.599505424E0,-3.234498024E0,1.002659215E1
3.252709327E0,4.096213341E0,8.568398476E0,-3.311068296E0,1.005781236E1
3.255215265E0,4.184747696E0,8.566005707E0,-3.342175007E0,1.010241064E1
3.257721306E0,4.256831646E0,8.678468704E0,-3.440280676E0,1.026021276E1
3.260227296E0,4.266402721E0,8.671290398E0,-3.401995659E0,1.024534254E1
3.262733285E0,4.290330887E0,8.659325600E0,-3.210569859E0,1.018325183E1
3.265239275E0,4.321437836E0,8.772088051E0,-3.409173965E0,1.035600410E1
3.267745265E0,4.235296249E0,8.769695282E0,-3.492922783E0,1.034629399E1
3.270251202E0,4.120141506E0,8.554041862E0,-3.217748165E0,1.002502376E1
3.272757140E0,4.077070713E0,8.372187614E0,-3.136392355E0,9.826138003E0
3.275263181E0,4.012464523E0,8.259724617E0,-3.126821041E0,9.700511952E0
3.277769171E0,4.038785458E0,8.228617668E0,-2.961417198E0,9.632856717E0
3.280275160E0,4.127319813E0,8.281260490E0,-2.822633505E0,9.673743022E0
3.282781150E0,4.175176620E0,8.379365921E0,-2.858525753E0,9.788618009E0
3.285287140E0,4.271188259E0,8.451150894E0,-2.937488794E0,9.914325040E0
3.287793077E0,4.278367043E0,8.561220169E0,-3.248854876E0,1.010712488E1
3.290299015E0,4.184747696E0,8.489435196E0,-3.234498024E0,1.000222979E1
3.292805056E0,4.134498596E0,8.317152023E0,-3.045166016E0,9.774565591E0
3.295311046E0,4.163212299E0,8.235795975E0,-3.002095222E0,9.704290170E0
3.297817035E0,4.170390606E0,8.329116821E0,-3.052344322E0,9.802201319E0
3.300323025E0,4.144069672E0,8.451150894E0,-2.903989315E0,9.850300443E0
3.302829015E0,4.146462440E0,8.568398476E0,-2.731706142E0,9.903172303E0
3.305334952E0,4.103391647E0,8.690432549E0,-2.753241539E0,9.997088569E0
3.307840890E0,4.029214382E0,8.618648529E0,-2.655135870E0,9.877520817E0
3.310346931E0,3.986143351E0,8.443971634E0,-2.557030201E0,9.681342841E0
3.312852921E0,3.990929127E0,8.331509590E0,-2.542673111E0,9.581584102E0
3.315358910E0,4.014857292E0,8.350651741E0,-2.691028118E0,9.648528173E0
3.317864900E0,3.995714664E0,8.439186096E0,-2.712563515E0,9.723353252E0
3.320370890E0,3.935894251E0,8.546863556E0,-2.650350094E0,9.775709479E0
3.322876827E0,3.849752426E0,8.580363274E0,-2.628814697E0,9.764931867E0
3.325382765E0,3.756432533E0,8.587541580E0,-2.619243383E0,9.732270633E0
3.327888806E0,3.672683716E0,8.637790680E0,-2.772384167E0,9.787039771E0
3.330394796E0,3.600599766E0,8.769695282E0,-3.076272726E0,9.966710987E0
3.332900785E0,3.507279873E0,8.889336586E0,-3.217748165E0,1.008341313E1
3.335406775E0,3.433102369E0,8.961120605E0,-3.232105255E0,1.012592607E1
3.337912765E0,3.387638569E0,8.944371223E0,-3.172284603E0,1.007676839E1
3.340418702E0,3.404388428E0,8.901300430E0,-2.954238653E0,9.977501488E0
3.342924640E0,3.488137245E0,8.946763992E0,-2.791526794E0,1.000021546E1
3.345430681E0,3.571886063E0,9.049654961E0,-2.722134829E0,1.010270474E1
3.347936671E0,3.641277790E0,9.205188751E0,-2.655135870E0,1.024910486E1
3.350442660E0,3.687040567E0,9.279664993E0,-2.516052961E0,1.029742555E1
3.352948650E0,3.699004650E0,9.341878891E0,-2.453839540E0,1.034285575E1
3.355454640E0,3.667897940E0,9.411270142E0,-2.508874655E0,1.040768625E1
3.357960629E0,3.595814228E0,9.428020477E0,-2.451446772E0,1.038398003E1
3.360466567E0,3.545564890E0,9.361021042E0,-2.405983210E0,1.029507166E1
3.362972504E0,3.528815269E0,9.250652313E0,-2.374876499E0,1.018170633E1
3.365478546E0,3.595814228E0,9.178867340E0,-2.353341103E0,1.013507277E1
3.367984535E0,3.631706476E0,9.159725189E0,-2.341377020E0,1.012777882E1
3.370490525E0,3.629313707E0,9.193224907E0,-2.293520451E0,1.014630663E1
3.372996515E0,3.593421459E0,9.248259544E0,-2.233700037E0,1.017017199E1
3.375502452E0,3.583850145E0,9.286844254E0,-2.255235434E0,1.020664220E1
3.378008390E0,3.559921980E0,9.320343018E0,-2.382055044E0,1.025748628E1
3.380514431E0,3.567100286E0,9.370592117E0,-2.525923491E0,1.033984964E1
3.383020421E0,3.516851187E0,9.416056633E0,-2.657528639E0,1.039676985E1
3.385526410E0,3.457030535E0,9.435198784E0,-2.717349291E0,1.040951600E1
3.388032400E0,3.387638569E0,9.423234940E0,-2.719742060E0,1.037643719E1
3.390538390E0,3.291925669E0,9.408877373E0,-2.738884687E0,1.033756438E1
3.393044379E0,3.186641455E0,9.439984322E0,-2.853740215E0,1.036396743E1
3.395550369E0,3.088535786E0,9.444769859E0,-2.963809967E0,1.036951785E1
3.398056306E0,3.033201694E0,9.425627708E0,-2.908775091E0,1.032006506E1
3.400562244E0,3.026023388E0,9.451948166E0,-2.939881802E0,1.035079933E1
3.403068285E0,3.006880760E0,9.516554832E0,-2.997309446E0,1.042065313E1
3.405574275E0,2.985345364E0,9.581160545E0,-3.064308405E0,1.049289809E1
3.408080265E0,3.009273529E0,9.629017830E0,-3.078665495E0,1.054760128E1
3.410586254E0,3.061915636E0,9.705587387E0,-3.042773008E0,1.062225124E1
3.413092244E0,3.145963669E0,9.791728973E0,-3.018844843E0,1.071860382E1
3.415598181E0,3.265604734E0,9.870991707E0,-3.023630619E0,1.082788039E1
3.418104119E0,3.423531055E0,9.957133293E0,-2.968595505E0,1.093972703E1
3.420610160E0,3.543172121E0,1.005763149E1,-2.908775091E0,1.105309877E1
3.423116150E0,3.696611881E0,1.010788059E1,-2.815454960E0,1.112479106E1
3.425622140E0,3.818645954E0,1.012463093E1,-2.686242580E0,1.114926489E1
3.428128129E0,3.935894251E0,1.012463093E1,-2.542673111E0,1.115637045E1
3.430634119E0,4.072285175E0,1.014138031E1,-2.487339020E0,1.120794167E1
3.433140108E0,4.134498596E0,1.020598698E1,-2.415554523E0,1.127347118E1
3.435646046E0,4.096213341E0,1.027537823E1,-2.236092806E0,1.128549833E1
3.438151983E0,4.002892971E0,1.032562828E1,-2.013560295E0,1.125593961E1
3.440658025E0,3.878466368E0,1.033998489E1,-1.872084618E0,1.120100396E1
3.443164015E0,3.689433336E0,1.030887794E1,-1.840977907E0,1.110288622E1
3.445670004E0,3.512065411E0,1.025145054E1,-1.903191328E0,1.100222609E1
3.448175994E0,3.311068296E0,1.020598698E1,-2.025524378E0,1.091916171E1
3.450681983E0,3.155534744E0,1.017248726E1,-2.092523336E0,1.085428719E1
3.453187921E0,3.061915636E0,1.013420200E1,-2.056631088E0,1.078457737E1
3.455693858E0,3.023630619E0,1.008395290E1,-1.919941068E0,1.070115050E1
3.458199900E0,2.999702215E0,1.002891827E1,-1.773978829E0,1.061717551E1
3.460705890E0,3.030808926E0,1.001216793E1,-1.663909078E0,1.059235115E1
3.463211879E0,3.117249727E0,1.001216793E1,-1.534696579E0,1.059792650E1
3.465717869E0,3.208176851E0,1.007677460E1,-1.419841170E0,1.067003908E1
3.468223858E0,3.318246841E0,1.017488003E1,-1.412662625E0,1.079511748E1
3.470729848E0,3.421138287E0,1.028255749E1,-1.539482236E0,1.094555532E1
3.473235785E0,3.531208038E0,1.041446114E1,-1.769193292E0,1.113824384E1
3.475741723E0,3.694219112E0,1.054367352E1,-2.063809633E0,1.136114502E1
3.478247765E0,3.876073599E0,1.062981510E1,-2.274377823E0,1.154078464E1
3.480753754E0,4.050749779E0,1.072313595E1,-2.394019127E0,1.171006174E1
3.483259744E0,4.256831646E0,1.085474110E1,-2.420340061E0,1.190815124E1
3.485765733E0,4.398007870E0,1.096989536E1,-2.413161755E0,1.206252159E1
3.488271723E0,4.457828522E0,1.112064362E1,-2.386840582E0,1.221629885E1
3.490777660E0,4.333401680E0,1.118524933E1,-2.358126640E0,1.222493083E1
3.493283598E0,4.096213341E0,1.117089272E1,-2.410768747E0,1.214000057E1
3.495789640E0,3.868895054E0,1.117567825E1,-2.535494804E0,1.209515884E1
3.498295629E0,3.655933857E0,1.120439243E1,-2.722134829E0,1.209604399E1
3.500801619E0,3.435495138E0,1.117328548E1,-2.937488794E0,1.205295714E1
3.503307608E0,3.198605776E0,1.116371441E1,-3.189034462E0,1.204282106E1
3.505813598E0,2.906382322E0,1.118524933E1,-3.325425386E0,1.202561078E1
3.508319588E0,2.635993242E0,1.122592735E1,-3.366103172E0,1.201251663E1
3.510825525E0,2.310270309E0,1.124746323E1,-3.373281717E0,1.196753139E1
3.513331463E0,2.099701881E0,1.135513973E1,-3.445066452E0,1.205057796E1
3.515837504E0,1.888834357E0,1.145563793E1,-3.454637766E0,1.211337516E1
3.518343494E0,1.649552107E0,1.154686451E1,-3.325425386E0,1.212887283E1
3.520849483E0,1.415055513E0,1.167368412E1,-3.136392355E0,1.217021939E1
3.523355473E0,1.273579836E0,1.188185978E1,-3.112463951E0,1.234860434E1
3.525861463E0,1.161117196E0,1.215733337E1,-3.258426189E0,1.263986903E1
3.528367400E0,1.094118118E0,1.271994591E1,-3.746861219E0,1.330537814E1
3.530873338E0,8.883354068E-1,1.340459251E1,-4.539184570E0,1.418014234E1
3.533379379E0,5.386841893E-1,1.421366596E1,-5.425127029E0,1.522335325E1
3.535885369E0,5.264209956E-2,1.509960842E1,-6.186343670E0,1.631783667E1
3.538391358E0,-6.439684033E-1,1.580578995E1,-6.459424496E0,1.708689135E1
3.540897348E0,-1.582553029E0,1.607887077E1,-6.057131290E0,1.725466311E1
3.543403338E0,-2.554637194E0,1.600947952E1,-5.154438972E0,1.701169736E1
3.545909327E0,-3.454637766E0,1.572443390E1,-4.079463482E0,1.660826198E1
3.548415265E0,-4.120141506E0,1.521446323E1,-3.155534744E0,1.607522495E1
3.550921202E0,-4.474578381E0,1.460399437E1,-2.394019127E0,1.546058960E1
3.553427244E0,-4.510470867E0,1.405095387E1,-1.843370795E0,1.487184144E1
3.555933233E0,-4.268795490E0,1.373001671E1,-1.448554993E0,1.445109980E1
3.558439223E0,-3.825824261E0,1.357448292E1,-1.103689432E0,1.414643588E1
3.560945213E0,-3.346960783E0,1.356012630E1,-7.660023570E-1,1.398806389E1
3.563451202E0,-2.915953398E0,1.366301727E1,-5.793621540E-1,1.398272097E1
3.565957192E0,-2.624029160E0,1.385234928E1,-5.913262963E-1,1.411108700E1
3.568463129E0,-2.441875458E0,1.407248878E1,-8.018946648E-1,1.430526936E1
3.570969067E0,-2.394019127E0,1.427827168E1,-1.103689432E0,1.451959021E1
3.573475108E0,-2.427518606E0,1.456092358E1,-1.515554070E0,1.483948268E1
3.575981098E0,-2.588136673E0,1.497757435E1,-1.919941068E0,1.532032501E1
3.578487088E0,-2.844168901E0,1.553061581E1,-2.128415823E0,1.593171296E1
3.580993077E0,-3.232105255E0,1.613869095E1,-2.193022013E0,1.660461368E1
3.583499067E0,-3.696611881E0,1.682812309E1,-2.166700840E0,1.736505856E1
3.586005004E0,-4.148855209E0,1.753669739E1,-2.116451740E0,1.814464447E1
3.588510942E0,-4.505684853E0,1.816152382E1,-1.900798440E0,1.880838053E1
3.591016983E0,-4.778766155E0,1.852074623E1,-1.455733418E0,1.918264337E1
3.593522973E0,-5.027619362E0,1.845374680E1,-9.672985673E-1,1.915080661E1
3.596028963E0,-5.161617756E0,1.793420601E1,-6.272186637E-1,1.867274608E1
3.598534952E0,-5.003691196E0,1.710569000E1,-6.272186637E-1,1.783353468E1
3.601040942E0,-4.316651821E0,1.610997772E1,-1.005583763E0,1.670856259E1
3.603546879E0,-3.157927752E0,1.528385544E1,-1.785943031E0,1.570854345E1
3.606052869E0,-1.769193292E0,1.503739452E1,-3.033201694E0,1.544194261E1
3.608558858E0,-4.381856322E-1,1.540110397E1,-4.689932346E0,1.610532445E1
3.611064796E0,5.865406394E-1,1.621765518E1,-6.363412857E0,1.743127628E1
3.613570838E0,1.211366415E0,1.718016815E1,-7.606184959E0,1.882762959E1
3.616076827E0,1.450947881E0,1.808734703E1,-8.140083313E0,1.988764261E1
3.618582817E0,1.378864050E0,1.873849297E1,-7.967501163E0,2.040866138E1
3.621088806E0,1.072582722E0,1.902593040E1,-7.352246761E0,2.042527831E1
3.623594744E0,6.559324861E-1,1.885843277E1,-6.454638958E0,1.994324693E1
3.626100681E0,2.129612118E-1,1.817348862E1,-5.302793980E0,1.893252928E1
3.628606723E0,1.196411345E-2,1.712752533E1,-4.031607151E0,1.759562796E1
3.631112713E0,1.818545163E-1,1.577229023E1,-3.124428272E0,1.607980915E1
3.633618702E0,6.774678826E-1,1.438385487E1,-2.784348249E0,1.466652102E1
3.636124692E0,1.635195136E0,1.332084370E1,-2.791526794E0,1.370807652E1
3.638630681E0,3.023630619E0,1.277737427E1,-3.277568817E0,1.353314792E1
3.641136671E0,4.608576298E0,1.264816093E1,-4.307080746E0,1.413385634E1
3.643642608E0,6.145665646E0,1.292812157E1,-5.461019516E0,1.532084422E1
3.646148546E0,7.493422985E0,1.354576874E1,-6.207879066E0,1.667863907E1
3.648654588E0,8.522934914E0,1.413709545E1,-6.569494724E0,1.776671462E1
3.651160577E0,9.087940216E0,1.455853081E1,-6.574280262E0,1.837831977E1
3.653666567E0,9.301200867E0,1.499671650E1,-6.507281303E0,1.880847025E1
3.656172556E0,9.044869423E0,1.562393570E1,-6.231807709E0,1.909849358E1
3.658678546E0,8.510971069E0,1.619133377E1,-5.571089268E0,1.912153115E1
3.661184535E0,7.967501163E0,1.712991905E1,-5.130510807E0,1.957644867E1
3.663690525E0,7.337889671E0,1.780260086E1,-4.565505505E0,1.978941795E1
3.666196463E0,6.507281303E0,1.615783310E1,-3.663112402E0,1.779996272E1
3.668702400E0,5.987739563E0,1.062502956E1,-1.992024899E0,1.235768755E1
3.671208442E0,6.672386169E0,3.837788343E0,-6.032904387E-1,7.720965996E0
3.673714431E0,8.190332413E0,-1.470090389E0,-1.031904817E0,8.384959054E0
3.676220421E0,1.001934624E1,-4.433900356E0,-2.413161755E0,1.121918540E1
3.678726410E0,1.188185978E1,-4.855336189E0,-3.833002806E0,1.339570050E1
3.681232400E0,1.350748348E1,-2.772384167E0,-4.402793884E0,1.447490304E1
3.683738390E0,1.459920883E1,1.067797065E0,-3.969393730E0,1.516684462E1
3.686244327E0,1.506371593E1,5.403591633E0,-3.095714331E0,1.630023888E1
3.688750265E0,1.503500175E1,9.171689034E0,-2.365305185E0,1.776980096E1
3.691256306E0,1.471167183E1,1.192732334E1,-2.025524378E0,1.904723285E1
3.693762296E0,1.399352551E1,1.362951756E1,-1.666301847E0,1.960507757E1
3.696268285E0,1.277976704E1,1.435992718E1,-1.505982757E0,1.928206260E1
3.698774275E0,1.117807102E1,1.425912952E1,-2.142772675E0,1.824454771E1
3.701280265E0,9.291629791E0,1.335434341E1,-3.411566973E0,1.662262499E1
3.703786254E0,7.287640572E0,1.200867939E1,-4.591826439E0,1.477846257E1
3.706292192E0,5.087440014E0,1.049820995E1,-5.233402252E0,1.278604541E1
3.708798129E0,2.767598391E0,8.985049248E0,-5.410770416E0,1.084744889E1
3.711304171E0,4.764707983E-1,7.579864025E0,-5.365306377E0,9.298810439E0
3.713810160E0,-1.618445396E0,6.358626842E0,-5.132903576E0,8.330558201E0
3.716316150E0,-3.344567776E0,5.408377171E0,-4.768895626E0,7.948524562E0
3.718822140E0,-4.646861553E0,4.692325115E0,-4.338187218E0,7.901335686E0
3.721328129E0,-5.532804012E0,4.167997837E0,-3.866502285E0,7.933093100E0
3.723834067E0,-5.985346794E0,3.821038723E0,-3.394817114E0,7.870800239E0
3.726340004E0,-6.006882191E0,3.634099483E0,-2.939881802E0,7.611321680E0
3.728846046E0,-5.516054630E0,3.559921980E0,-2.600100994E0,7.061191710E0
3.731352035E0,-4.646861553E0,3.579064369E0,-2.353341103E0,6.319908100E0
3.733858025E0,-3.631706476E0,3.564707518E0,-2.116451740E0,5.511424461E0
3.736364015E0,-2.451446772E0,3.497708559E0,-1.936690807E0,4.689811054E0
3.738870004E0,-1.084546804E0,3.473780155E0,-1.886441588E0,4.099030642E0
3.741375994E0,3.376871049E-1,3.500101328E0,-1.931905150E0,4.012106603E0
3.743881983E0,1.723729610E0,3.547957659E0,-2.082952023E0,4.460710307E0
3.746387921E0,3.057130098E0,3.617349625E0,-2.319841623E0,5.273796346E0
3.748893858E0,4.259224415E0,3.699004650E0,-2.619243383E0,6.219651431E0
3.751399900E0,5.266901970E0,3.785146236E0,-2.889632463E0,7.100532668E0
3.753905890E0,6.104988098E0,3.854538202E0,-3.078665495E0,7.848982460E0
3.756411879E0,6.746563435E0,3.904787540E0,-3.220141172E0,8.434025912E0
3.758917869E0,7.227819920E0,3.964607954E0,-3.296711445E0,8.878502316E0
3.761423858E0,7.606184959E0,4.053142548E0,-3.323032379E0,9.237129334E0
3.763929796E0,7.890930653E0,4.151247978E0,-3.311068296E0,9.511194436E0
3.766435733E0,8.056035995E0,4.237689018E0,-3.241676569E0,9.662618235E0
3.768941775E0,8.101499557E0,4.278367043E0,-3.098107100E0,9.671452178E0
3.771447765E0,8.077570915E0,4.273581028E0,-2.906382322E0,9.589458008E0
3.773953754E0,7.948358536E0,4.223331928E0,-2.712563515E0,9.400581727E0
3.776459744E0,7.783253670E0,4.191926003E0,-2.545065880E0,9.199382677E0
3.778965733E0,7.529315472E0,4.148855209E0,-2.403590441E0,8.926412383E0
3.781471723E0,7.225427151E0,4.103391647E0,-2.350948334E0,8.635483692E0
3.783977713E0,6.847062111E0,4.084249020E0,-2.283949137E0,8.293357177E0
3.786483650E0,6.439982891E0,4.091427803E0,-2.200200319E0,7.940657564E0
3.788989588E0,6.016453266E0,4.067499161E0,-2.061416626E0,7.549284591E0
3.791495629E0,5.587839127E0,4.036392689E0,-1.922333837E0,7.156240593E0
3.794001619E0,5.180759907E0,3.990929127E0,-1.807478428E0,6.784892540E0
3.796507608E0,4.898406982E0,3.967000723E0,-1.718943954E0,6.533471819E0
3.799013598E0,4.677968502E0,3.923929930E0,-1.730908036E0,6.346389370E0
3.801519588E0,4.524827480E0,3.859323740E0,-1.762014747E0,6.202671958E0
3.804025577E0,4.443471432E0,3.823431492E0,-1.790728688E0,6.129418894E0
3.806531515E0,4.407579422E0,3.777967930E0,-1.812264085E0,6.081455348E0
3.809037452E0,4.400400639E0,3.734897137E0,-1.807478428E0,6.048136959E0
3.811543494E0,4.414757729E0,3.703790426E0,-1.776371717E0,6.030227674E0
3.814049483E0,4.474578381E0,3.706183195E0,-1.718943954E0,6.059076982E0
3.816555473E0,4.630111694E0,3.792324781E0,-1.661516190E0,6.211304018E0
3.819061463E0,4.831408024E0,3.907180309E0,-1.659123421E0,6.431271413E0
3.821567452E0,5.077868938E0,4.045963764E0,-1.702194214E0,6.712081710E0
3.824073442E0,5.302793980E0,4.194318771E0,-1.754836321E0,6.985082996E0
3.826579431E0,5.465805054E0,4.331008911E0,-1.781157374E0,7.197581862E0
3.829085369E0,5.587839127E0,4.469792843E0,-1.829013824E0,7.385681129E0
3.831591306E0,5.650052547E0,4.534399033E0,-1.838585138E0,7.474240007E0
3.834097348E0,5.650052547E0,4.579862595E0,-1.872084618E0,7.510188812E0
3.836603338E0,5.671587944E0,4.670789719E0,-1.943869352E0,7.600119372E0
3.839109327E0,5.647659779E0,4.744967461E0,-2.008774519E0,7.644995242E0
3.841615317E0,5.590231895E0,4.826622486E0,-2.061416626E0,7.667882092E0
3.844121306E0,5.472983360E0,4.898406982E0,-2.145165443E0,7.651775781E0
3.846627296E0,5.298008442E0,4.922335148E0,-2.197807550E0,7.558348681E0
3.849133233E0,5.087440014E0,4.907978535E0,-2.188236237E0,7.399910609E0
3.851639171E0,4.869693279E0,4.917549610E0,-2.123630047E0,7.239199637E0
3.854145213E0,4.680361271E0,4.948656559E0,-2.078166485E0,7.121359372E0
3.856651202E0,4.512863636E0,4.970191956E0,-2.042274237E0,7.017095577E0
3.859157192E0,4.398007870E0,5.037190914E0,-2.044667006E0,6.992598136E0
3.861663181E0,4.326223373E0,5.125725269E0,-2.042274237E0,7.011430116E0
3.864169171E0,4.271188259E0,5.199902534E0,-2.030309916E0,7.028811697E0
3.866675160E0,4.228117466E0,5.228616714E0,-1.958226204E0,7.003574796E0
3.869181098E0,4.228117466E0,5.302793980E0,-1.943869352E0,7.055156225E0
3.871687035E0,4.235296249E0,5.425127029E0,-1.994417667E0,7.165712765E0
3.874193077E0,4.285545349E0,5.595017433E0,-2.044667006E0,7.338309218E0
3.876699067E0,4.328616142E0,5.743372440E0,-2.126022816E0,7.499547834E0
3.879205056E0,4.460221291E0,5.884549141E0,-2.238485575E0,7.715718387E0
3.881711046E0,4.594219685E0,6.054738522E0,-2.437089920E0,7.981611388E0
3.884217035E0,4.692325115E0,6.200700760E0,-2.607279301E0,8.201494391E0
3.886722973E0,4.788337231E0,6.327520370E0,-2.748456001E0,8.397600721E0
3.889228963E0,4.888835907E0,6.449554443E0,-2.853740215E0,8.581451058E0
3.891734952E0,5.030012131E0,6.658029079E0,-2.990130901E0,8.864042874E0
3.894240890E0,5.207081318E0,6.868597507E0,-3.076272726E0,9.151763844E0
3.896746931E0,5.348556995E0,7.077072144E0,-3.153141975E0,9.414579989E0
3.899252921E0,5.477769375E0,7.316354275E0,-3.224926710E0,9.692014728E0
3.901758910E0,5.628517151E0,7.479066372E0,-3.279961586E0,9.918406481E0
3.904264900E0,5.800800323E0,7.591827869E0,-3.356531858E0,1.012676853E1
3.906770890E0,5.980561256E0,7.661220074E0,-3.461816072E0,1.031724656E1
3.909276879E0,6.128916264E0,7.764111042E0,-3.533600807E0,1.050387402E1
3.911782817E0,6.262914181E0,7.847859859E0,-3.540779352E0,1.064660119E1
3.914288754E0,6.377769470E0,7.998608112E0,-3.521636724E0,1.081922365E1
3.916794796E0,6.449554443E0,8.159226418E0,-3.507279873E0,1.097591638E1
3.919300785E0,6.497709751E0,8.333902359E0,-3.509672642E0,1.113516783E1
3.921806775E0,6.524031162E0,8.520542145E0,-3.531208038E0,1.129743561E1
3.924312765E0,6.526423931E0,8.697610855E0,-3.598206997E0,1.145380886E1
3.926818754E0,6.488138676E0,8.841479301E0,-3.701397419E0,1.157445647E1
3.929324744E0,6.428019047E0,8.963513374E0,-3.782753468E0,1.166075575E1
3.931830681E0,6.337091446E0,9.078369141E0,-3.864109516E0,1.172633176E1
3.934336619E0,6.250949860E0,9.164510727E0,-3.911965847E0,1.176291239E1
3.936842660E0,6.183950901E0,9.260522842E0,-3.974179268E0,1.182339346E1
3.939348650E0,6.143272877E0,9.394520760E0,-4.060320854E0,1.193662546E1
3.941854640E0,6.114559174E0,9.502198219E0,-4.160819530E0,1.204126339E1
3.944360629E0,6.102594852E0,9.631410599E0,-4.307080746E0,1.218838294E1
3.946866619E0,6.049952984E0,9.751050949E0,-4.474578381E0,1.231693052E1
3.949372608E0,5.999703884E0,9.851848602E0,-4.654039860E0,1.243846673E1
3.951878598E0,5.963811398E0,9.942776680E0,-4.826622486E0,1.255874751E1
3.954384535E0,5.947061539E0,1.004088211E1,-4.951049328E0,1.267674027E1
3.956890473E0,5.935097694E0,1.015334511E1,-5.020441055E0,1.278751852E1
3.959396515E0,5.927918911E0,1.025623608E1,-5.068297386E0,1.288480654E1
3.961902504E0,5.942276001E0,1.034477043E1,-5.073082924E0,1.296383777E1
3.964408494E0,6.014060497E0,1.042642593E1,-5.046761990E0,1.305178486E1
3.966914483E0,6.100202084E0,1.049820995E1,-5.027619362E0,1.314160698E1
3.969420473E0,6.231807709E0,1.050778198E1,-4.998905659E0,1.319992300E1
3.971926463E0,6.372983932E0,1.048863888E1,-4.972584724E0,1.324209457E1
3.974432400E0,6.531209469E0,1.045274639E1,-4.955834866E0,1.328446098E1
3.976938338E0,6.665207386E0,1.036869907E1,-4.946263313E0,1.328158239E1
3.979444379E0,6.768098831E0,1.029212856E1,-4.934299469E0,1.326960374E1
3.981950369E0,6.832705021E0,1.021316528E1,-4.922335148E0,1.323721973E1
3.984456358E0,6.882954121E0,1.012463093E1,-4.922335148E0,1.319517306E1
3.986962348E0,6.897311211E0,1.003848934E1,-4.934299469E0,1.314121309E1
3.989468338E0,6.894918442E0,9.966704369E0,-4.965405941E0,1.309695966E1
3.991974327E0,6.868597507E0,9.904491425E0,-5.018048286E0,1.305593316E1
3.994480317E0,6.808776855E0,9.832706451E0,-5.063511848E0,1.298771384E1
3.996986254E0,6.725028038E0,9.763015747E0,-5.080261707E0,1.289773382E1
3.999492192E0,6.626922131E0,9.688838005E0,-5.034798145E0,1.277258279E1
4.001998233E0,6.507281303E0,9.605089188E0,-4.941477776E0,1.261033905E1
4.004504223E0,6.389733791E0,9.528518677E0,-4.802694321E0,1.243733246E1
4.007010213E0,6.258128643E0,9.432806015E0,-4.632504463E0,1.223119377E1
4.009516202E0,6.143272877E0,9.356235504E0,-4.409972191E0,1.203024518E1
4.012022192E0,6.090631008E0,9.289237022E0,-4.156033993E0,1.185994642E1
4.014528181E0,6.073881149E0,9.224330902E0,-3.907180309E0,1.171521962E1
4.017034171E0,6.121737480E0,9.195617676E0,-3.732504129E0,1.166047346E1
4.019540108E0,6.255735874E0,9.229117393E0,-3.598206997E0,1.171571307E1
4.022046046E0,6.430411816E0,9.301200867E0,-3.507279873E0,1.183906862E1
4.024552088E0,6.586244106E0,9.372985840E0,-3.421138287E0,1.195557034E1
4.027058077E0,6.782455921E0,9.442377090E0,-3.385245800E0,1.210867799E1
4.029564067E0,6.906882763E0,9.490233421E0,-3.368496180E0,1.221131960E1
4.032070056E0,7.004988194E0,9.511769295E0,-3.385245800E0,1.228834830E1
4.034576046E0,7.036394119E0,9.497411728E0,-3.387638569E0,1.229584348E1
4.037082035E0,6.976274490E0,9.478269577E0,-3.385245800E0,1.224605606E1
4.039588025E0,6.887740135E0,9.480662346E0,-3.344567776E0,1.218647021E1
4.042093963E0,6.784848690E0,9.552447319E0,-3.303889751E0,1.217370564E1
4.044599900E0,6.636493683E0,9.674481392E0,-3.222533941E0,1.216648526E1
4.047105942E0,6.480959892E0,9.779765129E0,-3.119642496E0,1.213996773E1
4.049611931E0,6.344270229E0,9.916455269E0,-3.035594702E0,1.215733051E1
4.052117921E0,6.191129684E0,1.008634567E1,-2.966202736E0,1.220093498E1
4.054623910E0,6.018846035E0,1.024427223E1,-2.927917719E0,1.223700631E1
4.057129900E0,5.791228771E0,1.037109184E1,-2.856132984E0,1.221701160E1
4.059635890E0,5.513661385E0,1.042881870E1,-2.746062994E0,1.211204291E1
4.062141827E0,5.195116997E0,1.043360424E1,-2.645564556E0,1.195191825E1
4.064647765E0,4.855336189E0,1.038066292E1,-2.545065880E0,1.173924241E1
4.067153806E0,4.491328239E0,1.032084274E1,-2.403590441E0,1.150952090E1
4.069659796E0,4.124927044E0,1.026102161E1,-2.250449657E0,1.128574815E1
4.072165785E0,3.775574923E0,1.024187946E1,-2.082952023E0,1.111259421E1
4.074671775E0,3.454637766E0,1.021077251E1,-1.881655931E0,1.094235014E1
4.077177765E0,3.165106058E0,1.015573788E1,-1.623231053E0,1.076065924E1
4.079683754E0,2.932703257E0,1.008634567E1,-1.338186026E0,1.058894987E1
4.082189744E0,2.702992201E0,9.961918831E0,-1.012762189E0,1.037167686E1
4.084695681E0,2.564208508E0,9.815657616E0,-6.678966284E-1,1.016702442E1
4.087201619E0,2.470589399E0,9.631410599E0,-3.233301640E-1,9.948488553E0
4.089707660E0,2.389233351E0,9.442377090E0,3.589234129E-2,9.740031282E0
4.092213650E0,2.362912416E0,9.198010445E0,3.616153300E-1,9.503552855E0
4.094719640E0,2.362912416E0,8.956335068E0,6.224330068E-1,9.283680078E0
4.097225629E0,2.401197433E0,8.724231720E0,7.851449251E-1,9.082643931E0
4.099731619E0,2.518445730E0,8.520542145E0,8.787640929E-1,8.928293995E0
4.102237608E0,2.681456804E0,8.350651741E0,9.098708034E-1,8.817678831E0
4.104743598E0,2.853740215E0,8.250153542E0,9.290133715E-1,8.779062166E0
4.107249588E0,3.047558784E0,8.147261620E0,9.146564603E-1,8.746546912E0
4.109755525E0,3.234498024E0,8.005785942E0,8.931210637E-1,8.680567450E0
4.112261463E0,3.425923824E0,7.895716667E0,8.353942037E-1,8.647379905E0
4.114767504E0,3.651148319E0,7.795217991E0,7.229315639E-1,8.638225374E0
4.117273494E0,3.921537161E0,7.673183918E0,5.027918816E-1,8.631859870E0
4.119779483E0,4.242474556E0,7.500601768E0,3.257229924E-1,8.623439726E0
4.122285473E0,4.603790760E0,7.347461224E0,2.368894368E-1,8.673879893E0
4.124791463E0,4.979763031E0,7.220641613E0,1.890329868E-1,8.773336801E0
4.127297400E0,5.408377171E0,7.103393078E0,1.770688742E-1,8.929730692E0
4.129803338E0,5.834300041E0,7.000202656E0,1.579262912E-1,9.114100883E0
4.132309379E0,6.298806667E0,6.882954121E0,1.076770201E-1,9.330681497E0
4.134815369E0,6.792026997E0,6.799205780E0,2.871387079E-2,9.610497097E0
4.137321358E0,7.323532581E0,6.748956203E0,-9.810572863E-2,9.959526296E0
4.139827348E0,7.859824181E0,6.739385128E0,-2.874378264E-1,1.035754645E1
4.142333338E0,8.410472870E0,6.753741741E0,-4.668995142E-1,1.079662339E1
4.144839327E0,8.977870941E0,7.249355316E0,-7.133602500E-1,1.156132354E1
4.147345317E0,9.878170013E0,1.047188950E1,-1.738086581E0,1.450033301E1
4.149851306E0,9.485447884E0,1.645454407E1,-1.551446438E0,1.905604177E1
4.152357244E0,6.823133945E0,1.740748596E1,-2.999702215E0,1.893604863E1
4.154863181E0,4.817050934E0,1.420648670E1,-5.793622017E0,1.608086752E1
4.157369223E0,4.958227634E0,1.349312687E1,-4.996512890E0,1.521885788E1
4.159875213E0,6.940382004E0,1.352901936E1,-5.671587944E0,1.622868377E1
4.162381202E0,9.303593636E0,1.322513103E1,-8.357830048E0,1.820204023E1
4.164887192E0,1.055085278E1,1.358166122E1,-1.002413273E1,1.990641236E1
4.167393181E0,1.037109184E1,1.550429440E1,-1.052453136E1,2.141748004E1
4.169899171E0,9.109476089E0,1.862363815E1,-1.009113121E1,2.305761006E1
4.172405160E0,6.646064758E0,2.254517555E1,-9.030512810E0,2.517946145E1
4.174911098E0,2.367697954E0,2.661746025E1,-8.312366486E0,2.798554306E1
4.177417035E0,-3.990929127E0,2.960071182E1,-7.876574039E0,3.088964348E1
4.179923077E0,-1.138624668E1,3.084797096E1,-6.207879066E0,3.346313925E1
4.182429067E0,-1.873849297E1,3.009393311E1,-2.863311291E0,3.556647972E1
4.184935056E0,-2.507827759E1,2.748186684E1,1.800299883E0,3.724800788E1
4.187441046E0,-2.908595657E1,2.325374985E1,6.696314335E0,3.783609887E1
4.189947035E0,-2.961028290E1,1.756780434E1,1.022991467E1,3.591723481E1
4.192453025E0,-2.618675232E1,1.127856922E1,1.034477043E1,3.033094783E1
