"Time (s)","Acceleration x (m/s^2)","Acceleration y (m/s^2)","Acceleration z (m/s^2)","Absolute acceleration (m/s^2)"
3.608405000E-3,1.459621787E-1,9.485447884E0,2.432304144E0,9.793422791E0
6.143509000E-3,1.004985496E-1,9.497411728E0,2.432304144E0,9.804439450E0
8.701634000E-3,7.178468257E-2,9.471091270E0,2.437089920E0,9.779883955E0
1.125772800E-2,4.546362907E-2,9.442377090E0,2.427518606E0,9.749533253E0
1.381387300E-2,4.067798331E-2,9.416056633E0,2.408375978E0,9.719261910E0
1.637001900E-2,5.982056633E-2,9.413662910E0,2.382055044E0,9.710551690E0
1.892616500E-2,1.004985496E-1,9.396913528E0,2.379662037E0,9.694063917E0
2.148231100E-2,1.674975902E-1,9.411270142E0,2.358126640E0,9.703649951E0
2.403845700E-2,2.344966233E-1,9.416056633E0,2.331805706E0,9.703320516E0
2.659460300E-2,3.424727321E-1,9.432806015E0,2.305484533E0,9.716500184E0
2.915074800E-2,4.621138871E-1,9.454340935E0,2.269592285E0,9.733918065E0
3.170689400E-2,5.865406394E-1,9.471091270E0,2.260020971E0,9.754655020E0
3.426304000E-2,7.085745931E-1,9.502198219E0,2.248056889E0,9.790179198E0
3.681918600E-2,7.947162390E-1,9.521340370E0,2.216950178E0,9.808280402E0
3.937533200E-2,8.524430394E-1,9.526125908E0,2.214557409E0,9.817229674E0
4.193147800E-2,8.979067206E-1,9.545269012E0,2.195414782E0,9.835560130E0
4.448762300E-2,9.290133715E-1,9.538089752E0,2.185843468E0,9.829350621E0
4.704376900E-2,9.290133715E-1,9.542876244E0,2.212164640E0,9.839879331E0
4.959991500E-2,9.266205430E-1,9.535696983E0,2.219342947E0,9.834308603E0
5.215606100E-2,9.194421172E-1,9.540482521E0,2.202593327E0,9.834510557E0
5.471220700E-2,8.787640929E-1,9.523733139E0,2.190629244E0,9.811858933E0
5.726835300E-2,8.572286963E-1,9.530911446E0,2.161915302E0,9.810555122E0
5.982449800E-2,8.234301209E-1,9.526125908E0,2.152343988E0,9.800902847E0
6.238064400E-2,7.875377536E-1,9.526125908E0,2.157129526E0,9.799004966E0
6.493679000E-2,7.636095285E-1,9.509376526E0,2.126022816E0,9.774012197E0
6.749293600E-2,7.636095285E-1,9.509376526E0,2.082952023E0,9.764734024E0
7.004908200E-2,7.588238716E-1,9.516554832E0,2.049452543E0,9.764265731E0
7.260522800E-2,7.731808424E-1,9.528518677E0,2.030309916E0,9.773056592E0
7.516137300E-2,7.923234105E-1,9.557232857E0,2.013560295E0,9.799127580E0
7.771751900E-2,8.186444640E-1,9.583553314E0,2.015953064E0,9.827448277E0
8.027366500E-2,8.452646136E-1,9.585947037E0,2.001596212E0,9.829101701E0
8.282981100E-2,8.620143533E-1,9.585947037E0,2.011167526E0,9.832509555E0
8.538595700E-2,8.859425783E-1,9.588339806E0,2.013560295E0,9.837457982E0
8.794210300E-2,9.050851464E-1,9.566803932E0,2.013560295E0,9.818214790E0
9.049824800E-2,9.074779749E-1,9.552447319E0,2.027917147E0,9.807406080E0
9.305439400E-2,9.074779749E-1,9.540482521E0,2.032702923E0,9.796744571E0
9.561054000E-2,8.787640929E-1,9.530911446E0,2.044667006E0,9.787295974E0
9.816668600E-2,8.668000102E-1,9.530911446E0,2.049452543E0,9.787229995E0
1.007228320E-1,8.620143533E-1,9.514162064E0,2.032702923E0,9.766996964E0
1.032789780E-1,8.715856671E-1,9.514162064E0,2.047059774E0,9.770844133E0
1.058351230E-1,8.859425783E-1,9.523733139E0,2.059023857E0,9.783964759E0
1.083912690E-1,9.170492887E-1,9.518947601E0,2.078166485E0,9.786220863E0
1.109474150E-1,9.720842242E-1,9.518947601E0,2.087737799E0,9.793567291E0
1.135035610E-1,1.043868899E0,9.497411728E0,2.080559254E0,9.778507995E0
1.160597070E-1,1.094118118E0,9.483055115E0,2.097309113E0,9.773644882E0
1.186158530E-1,1.170688510E0,9.475876808E0,2.114058733E0,9.779161375E0
1.211719980E-1,1.218544960E0,9.459127426E0,2.109273195E0,9.767751885E0
1.237281440E-1,1.278365493E0,9.428020477E0,2.114058733E0,9.746334325E0
1.262842900E-1,1.283151150E0,9.404091835E0,2.142772675E0,9.730102510E0
1.288404360E-1,1.285543919E0,9.387342453E0,2.193022013E0,9.725439170E0
1.313965820E-1,1.242473125E0,9.377771378E0,2.212164640E0,9.714937358E0
1.339527280E-1,1.201795220E0,9.375378609E0,2.255235434E0,9.717413373E0
1.365088730E-1,1.153938770E0,9.394520760E0,2.281556368E0,9.736225883E0
1.390650190E-1,1.101296663E0,9.418449402E0,2.293520451E0,9.756038106E0
1.416211650E-1,1.039083242E0,9.430413246E0,2.305484533E0,9.763587809E0
1.441773110E-1,9.912267923E-1,9.449555397E0,2.327019930E0,9.782210870E0
1.467334570E-1,9.672985673E-1,9.466305733E0,2.319841623E0,9.794298132E0
1.492896030E-1,9.361918569E-1,9.483055115E0,2.295913219E0,9.801836920E0
1.518457480E-1,8.835497499E-1,9.478269577E0,2.293520451E0,9.791756247E0
1.544018940E-1,8.620143533E-1,9.480662346E0,2.293520451E0,9.792153150E0
1.569580400E-1,8.018946648E-1,9.490233421E0,2.312663078E0,9.800815066E0
1.595141860E-1,7.588238716E-1,9.506983757E0,2.317448616E0,9.814740033E0
1.620703320E-1,7.468597889E-1,9.490233421E0,2.312663078E0,9.796465712E0
1.646264780E-1,7.085745931E-1,9.487840652E0,2.324627161E0,9.794135472E0
1.671826230E-1,6.655037999E-1,9.466305733E0,2.288734913E0,9.761769667E0
1.697387690E-1,6.224330068E-1,9.504590988E0,2.271985054E0,9.792169769E0
1.722949150E-1,5.697908998E-1,9.535696983E0,2.236092806E0,9.810927054E0
1.748510610E-1,5.051847100E-1,9.571589470E0,2.212164640E0,9.836880042E0
1.774072070E-1,4.549354017E-1,9.573982239E0,2.200200319E0,9.834072583E0
1.799633530E-1,4.142574072E-1,9.585947037E0,2.204986095E0,9.844996367E0
1.825194980E-1,3.927220106E-1,9.576375008E0,2.197807550E0,9.833185999E0
1.850756440E-1,3.616153300E-1,9.573982239E0,2.224128723E0,9.835580823E0
1.876317900E-1,3.735794425E-1,9.578767776E0,2.219342947E0,9.839605522E0
1.901879360E-1,3.687937856E-1,9.581160545E0,2.216950178E0,9.841215085E0
1.927440820E-1,3.783650696E-1,9.590732574E0,2.209771633E0,9.849284345E0
1.953002280E-1,4.094717801E-1,9.569196701E0,2.207378864E0,9.829024066E0
1.978563730E-1,4.094717801E-1,9.562018394E0,2.188236237E0,9.817751308E0
2.004125190E-1,4.166502357E-1,9.526125908E0,2.190629244E0,9.783635762E0
2.029686650E-1,4.286143482E-1,9.499805450E0,2.195414782E0,9.759603471E0
2.055248110E-1,4.405784607E-1,9.483055115E0,2.195414782E0,9.743833422E0
2.080809570E-1,4.692923427E-1,9.473484039E0,2.195414782E0,9.735860579E0
2.106371030E-1,4.908277392E-1,9.466305733E0,2.195414782E0,9.729938446E0
2.131932480E-1,5.362913609E-1,9.466305733E0,2.209771633E0,9.735586439E0
2.157493940E-1,5.793621540E-1,9.471091270E0,2.240878344E0,9.749808517E0
2.183055400E-1,6.104688644E-1,9.468698502E0,2.255235434E0,9.752692470E0
2.208616860E-1,6.367899179E-1,9.459127426E0,2.238485575E0,9.741222240E0
2.234178320E-1,6.774678826E-1,9.454340935E0,2.214557409E0,9.733847634E0
2.259739780E-1,7.037889361E-1,9.468698502E0,2.204986095E0,9.747488593E0
2.285301230E-1,7.013961077E-1,9.475876808E0,2.204986095E0,9.754289388E0
2.310862690E-1,6.774678826E-1,9.495018959E0,2.209771633E0,9.772279081E0
2.336424150E-1,6.463612318E-1,9.497411728E0,2.214557409E0,9.773580556E0
2.361985610E-1,6.343970895E-1,9.504590988E0,2.209771633E0,9.778691129E0
2.387547070E-1,5.865406394E-1,9.535696983E0,2.238485575E0,9.812459658E0
2.413108530E-1,5.506483316E-1,9.523733139E0,2.267199516E0,9.805350587E0
2.438669980E-1,4.860421121E-1,9.533304214E0,2.295913219E0,9.817909334E0
2.464231440E-1,4.453641176E-1,9.521340370E0,2.303091764E0,9.806044224E0
2.489792900E-1,4.238287210E-1,9.485447884E0,2.338984251E0,9.778762686E0
2.515354360E-1,4.094717801E-1,9.463912964E0,2.370090723E0,9.764765525E0
2.540915820E-1,4.142574072E-1,9.442377090E0,2.391626120E0,9.749357405E0
2.566477280E-1,4.429712892E-1,9.401699066E0,2.417947292E0,9.717748608E0
2.591996550E-1,4.860421121E-1,9.396913528E0,2.446661234E0,9.722364527E0
2.617264780E-1,5.554339290E-1,9.365806580E0,2.449054003E0,9.696633707E0
2.642325190E-1,6.320042610E-1,9.363413811E0,2.477767944E0,9.706301127E0
2.667385090E-1,7.157530785E-1,9.353842735E0,2.496910334E0,9.707792622E0
2.692445500E-1,8.066803217E-1,9.344271660E0,2.506481647E0,9.708171622E0
2.717505920E-1,8.715856671E-1,9.365806580E0,2.506481647E0,9.734497661E0
2.742565820E-1,9.385846853E-1,9.384949684E0,2.513660192E0,9.760978913E0
2.767626230E-1,9.984052777E-1,9.404091835E0,2.499303341E0,9.781629390E0
2.792686130E-1,1.036690354E0,9.454340935E0,2.470589399E0,9.826652603E0
2.817746550E-1,1.055832982E0,9.495018959E0,2.458625317E0,9.864836885E0
2.842806960E-1,1.070189953E0,9.521340370E0,2.463410854E0,9.892907662E0
2.867866860E-1,1.046261668E0,9.547661781E0,2.470589399E0,9.917475533E0
2.892927280E-1,9.984052777E-1,9.559625626E0,2.465803623E0,9.922874720E0
2.917987170E-1,9.625129104E-1,9.554840088E0,2.470589399E0,9.915907028E0
2.943047590E-1,9.002995491E-1,9.499805450E0,2.451446772E0,9.852229907E0
2.968107480E-1,8.258228898E-1,9.487840652E0,2.437089920E0,9.830590571E0
2.993167900E-1,7.564310431E-1,9.480662346E0,2.408375978E0,9.810984726E0
3.018228320E-1,6.846463680E-1,9.468698502E0,2.374876499E0,9.785960880E0
3.043288210E-1,6.343970895E-1,9.466305733E0,2.379662037E0,9.781420925E0
3.068348630E-1,6.128616929E-1,9.451948166E0,2.360519648E0,9.761504832E0
3.093408530E-1,6.056832075E-1,9.447162628E0,2.334198475E0,9.750088020E0
3.118468940E-1,6.343970895E-1,9.466305733E0,2.300698996E0,9.762510935E0
3.143529360E-1,6.702894568E-1,9.490233421E0,2.248056889E0,9.775867129E0
3.168589250E-1,7.037889361E-1,9.514162064E0,2.207378864E0,9.792196898E0
3.193649670E-1,7.396813035E-1,9.514162064E0,2.178664923E0,9.788410956E0
3.218709570E-1,7.540382147E-1,9.533304214E0,2.159522533E0,9.803876807E0
3.243769980E-1,7.683951855E-1,9.540482521E0,2.161915302E0,9.812497932E0
3.268829880E-1,7.588238716E-1,9.559625626E0,2.195414782E0,9.837789479E0
3.293890300E-1,7.731808424E-1,9.559625626E0,2.236092806E0,9.848063858E0
3.318950710E-1,7.492526174E-1,9.540482521E0,2.276770830E0,9.836964554E0
3.344010610E-1,7.157530785E-1,9.504590988E0,2.281556368E0,9.800767918E0
3.369071030E-1,6.870391965E-1,9.499805450E0,2.303091764E0,9.799110068E0
3.394130920E-1,6.631109715E-1,9.485447884E0,2.312663078E0,9.785798293E0
3.419191340E-1,6.678966284E-1,9.473484039E0,2.322234392E0,9.776796936E0
3.444251750E-1,6.678966284E-1,9.454340935E0,2.329412937E0,9.759959685E0
3.469311650E-1,6.631109715E-1,9.449555397E0,2.307877541E0,9.749877543E0
3.494372070E-1,6.798607111E-1,9.447162628E0,2.283949137E0,9.743075283E0
3.519431960E-1,6.870391965E-1,9.459127426E0,2.281556368E0,9.754620135E0
3.544492380E-1,6.894320250E-1,9.473484039E0,2.295913219E0,9.772074185E0
3.569552280E-1,6.846463680E-1,9.475876808E0,2.310270309E0,9.777439892E0
3.594612690E-1,6.702894568E-1,9.495018959E0,2.341377020E0,9.802383350E0
3.619673110E-1,6.463612318E-1,9.509376526E0,2.372483730E0,9.822153725E0
3.644733000E-1,6.272186637E-1,9.550054550E0,2.394019127E0,9.865509249E0
3.669793420E-1,5.937191248E-1,9.562018394E0,2.413161755E0,9.879678529E0
3.694853320E-1,5.291129351E-1,9.583553314E0,2.444268227E0,9.904488972E0
3.719913730E-1,5.147559643E-1,9.583553314E0,2.422732830E0,9.898439382E0
3.744974150E-1,4.692923427E-1,9.576375008E0,2.384447813E0,9.879918267E0
3.770034050E-1,4.525425732E-1,9.550054550E0,2.362912416E0,9.848436007E0
3.795094460E-1,4.453641176E-1,9.523733139E0,2.350948334E0,9.819714872E0
3.820154360E-1,4.716851711E-1,9.509376526E0,2.338984251E0,9.804161164E0
3.845214780E-1,4.740779996E-1,9.463912964E0,2.331805706E0,9.758468957E0
3.870275190E-1,4.740779996E-1,9.442377090E0,2.334198475E0,9.738157813E0
3.895335090E-1,4.788636267E-1,9.430413246E0,2.338984251E0,9.727941801E0
3.920395500E-1,5.195416212E-1,9.444769859E0,2.341377020E0,9.744518846E0
3.945455400E-1,5.410770178E-1,9.435198784E0,2.329412937E0,9.733545349E0
3.970515820E-1,5.554339290E-1,9.449555397E0,2.336591244E0,9.749987830E0
3.995576230E-1,5.602195859E-1,9.463912964E0,2.350948334E0,9.767622671E0
4.020636130E-1,5.626124144E-1,9.461520195E0,2.355733871E0,9.766595067E0
4.045696550E-1,5.626124144E-1,9.483055115E0,2.377269268E0,9.792664408E0
4.070756440E-1,5.721837282E-1,9.456734657E0,2.396411896E0,9.772410888E0
4.095816860E-1,5.817549825E-1,9.449555397E0,2.394019127E0,9.765442317E0
4.120877280E-1,6.080760360E-1,9.447162628E0,2.370090723E0,9.758891752E0
4.145937170E-1,6.224330068E-1,9.454340935E0,2.353341103E0,9.762694285E0
4.170997590E-1,6.343970895E-1,9.435198784E0,2.338984251E0,9.741472326E0
4.196057480E-1,6.559324861E-1,9.454340935E0,2.346162558E0,9.763159769E0
4.221117900E-1,6.870391965E-1,9.451948166E0,2.338984251E0,9.761259873E0
4.246177800E-1,7.253243923E-1,9.435198784E0,2.358126640E0,9.752427022E0
4.271238210E-1,7.636095285E-1,9.432806015E0,2.374876499E0,9.757098299E0
4.296298630E-1,7.875377536E-1,9.418449402E0,2.377269268E0,9.745707466E0
4.321358530E-1,8.042874932E-1,9.406484604E0,2.374876499E0,9.734930373E0
4.346418940E-1,8.042874932E-1,9.401699066E0,2.384447813E0,9.732646869E0
4.371478840E-1,7.875377536E-1,9.387342453E0,2.379662037E0,9.716234119E0
4.396539250E-1,7.468597889E-1,9.389735222E0,2.389233351E0,9.717683010E0
4.421599670E-1,7.061817646E-1,9.408877373E0,2.391626120E0,9.733732151E0
4.446659570E-1,6.463612318E-1,9.401699066E0,2.374876499E0,9.718526975E0
4.471719980E-1,5.745765567E-1,9.413662910E0,2.374876499E0,9.725596434E0
4.496779880E-1,5.099703074E-1,9.428020477E0,2.384447813E0,9.738235528E0
4.521840300E-1,4.453641176E-1,9.451948166E0,2.413161755E0,9.765296871E0
4.546900710E-1,3.879363835E-1,9.463912964E0,2.427518606E0,9.777984956E0
4.571960610E-1,3.448655605E-1,9.463912964E0,2.432304144E0,9.777560242E0
4.597021030E-1,2.898306549E-1,9.456734657E0,2.434697151E0,9.769420781E0
4.622080920E-1,2.512463629E-1,9.461520195E0,2.444268227E0,9.775373972E0
4.647141340E-1,2.249253243E-1,9.487840652E0,2.461018085E0,9.804403177E0
4.672201230E-1,2.033899277E-1,9.492626190E0,2.511267424E0,9.821292355E0
4.697261650E-1,1.818545163E-1,9.478269577E0,2.540280342E0,9.814463279E0
4.722322070E-1,1.483550072E-1,9.473484039E0,2.549851656E0,9.811760929E0
4.747381960E-1,1.339980662E-1,9.480662346E0,2.554637194E0,9.819729385E0
4.772442380E-1,1.363908947E-1,9.473484039E0,2.564208508E0,9.815328196E0
4.797502280E-1,1.363908947E-1,9.466305733E0,2.571387053E0,9.810279205E0
4.822562690E-1,1.603191197E-1,9.449555397E0,2.568994284E0,9.793851696E0
4.847623110E-1,1.914258152E-1,9.461520195E0,2.554637194E0,9.802202785E0
4.872683000E-1,2.632105052E-1,9.466305733E0,2.535494804E0,9.803517629E0
4.897743420E-1,3.329014480E-1,9.423234940E0,2.549851656E0,9.767800344E0
4.922803320E-1,3.879363835E-1,9.413662910E0,2.561815739E0,9.763731044E0
4.947863730E-1,4.262215197E-1,9.384949684E0,2.578565598E0,9.742070925E0
4.972924150E-1,4.812564552E-1,9.368199348E0,2.578565598E0,9.728502832E0
4.997984050E-1,5.003990531E-1,9.365806580E0,2.592922449E0,9.730980368E0
5.023044460E-1,5.027918816E-1,9.349057198E0,2.595315218E0,9.715623050E0
5.048104360E-1,5.051847100E-1,9.349057198E0,2.595315218E0,9.715747174E0
5.073164780E-1,4.932205677E-1,9.339486122E0,2.588136673E0,9.704005307E0
5.098224670E-1,4.716851711E-1,9.351449966E0,2.568994284E0,9.709368414E0
5.123285090E-1,4.477569461E-1,9.375378609E0,2.564208508E0,9.730024440E0
5.148345500E-1,4.334000051E-1,9.389735222E0,2.585743904E0,9.748899150E0
5.173405400E-1,4.166502357E-1,9.416056633E0,2.592922449E0,9.775426679E0
5.198465820E-1,4.142574072E-1,9.432806015E0,2.592922449E0,9.791459817E0
5.223525710E-1,3.951148391E-1,9.428020477E0,2.578565598E0,9.782263869E0
5.248586130E-1,4.022932947E-1,9.425627708E0,2.600100994E0,9.785950274E0
5.273646030E-1,3.879363835E-1,9.425627708E0,2.607279301E0,9.787280403E0
5.298706440E-1,3.376871049E-1,9.418449402E0,2.604886532E0,9.777865593E0
5.323766860E-1,2.994019389E-1,9.428020477E0,2.614457846E0,9.788391158E0
5.348826750E-1,2.464607358E-1,9.444769859E0,2.616850615E0,9.803689496E0
5.373887170E-1,1.914258152E-1,9.442377090E0,2.628814697E0,9.803356347E0
5.398947070E-1,1.339980662E-1,9.459127426E0,2.633600473E0,9.819821719E0
5.424007480E-1,7.896314561E-2,9.480662346E0,2.626421928E0,9.838052950E0
5.449067900E-1,6.460621208E-2,9.480662346E0,2.612065077E0,9.834125098E0
5.474127800E-1,6.939185411E-2,9.454340935E0,2.590529680E0,9.803072057E0
5.499188210E-1,7.896314561E-2,9.430413246E0,2.592922449E0,9.780704269E0
5.524248110E-1,1.100698411E-1,9.401699066E0,2.592922449E0,9.753322897E0
5.549308530E-1,1.172483116E-1,9.356235504E0,2.600100994E0,9.711509417E0
5.574368420E-1,1.339980662E-1,9.329915047E0,2.600100994E0,9.686371634E0
5.599428840E-1,1.555334777E-1,9.346664429E0,2.609672308E0,9.705396239E0
5.624489250E-1,1.363908947E-1,9.365806580E0,2.621636391E0,9.726762705E0
5.649549150E-1,1.339980662E-1,9.420842171E0,2.600100994E0,9.773983214E0
5.674609570E-1,1.220339537E-1,9.425627708E0,2.568994284E0,9.770214000E0
5.699669460E-1,1.316052526E-1,9.444769859E0,2.501696110E0,9.771360246E0
5.724729880E-1,1.483550072E-1,9.463912964E0,2.453839540E0,9.777984776E0
5.749790300E-1,2.081755698E-1,9.475876808E0,2.420340061E0,9.782311811E0
5.774850190E-1,2.632105052E-1,9.468698502E0,2.403590441E0,9.772552281E0
5.799910610E-1,3.089732230E-1,9.459127426E0,2.377269268E0,9.758174281E0
5.824970500E-1,3.281157911E-1,9.447162628E0,2.338984251E0,9.737935563E0
5.850030920E-1,3.544368446E-1,9.459127426E0,2.305484533E0,9.742483055E0
5.875091340E-1,3.831507266E-1,9.449555397E0,2.260020971E0,9.723610259E0
5.900151230E-1,4.046861231E-1,9.451948166E0,2.216950178E0,9.716890608E0
5.925211650E-1,4.334000051E-1,9.435198784E0,2.183450699E0,9.694238939E0
5.950271550E-1,4.501497746E-1,9.430413246E0,2.130808592E0,9.678619430E0
5.975331960E-1,4.573282301E-1,9.449555397E0,2.087737799E0,9.688234897E0
6.000392380E-1,4.908277392E-1,9.463912964E0,2.061416626E0,9.698247211E0
6.025452280E-1,5.338985324E-1,9.483055115E0,2.030309916E0,9.712648470E0
6.050512690E-1,6.008976102E-1,9.480662346E0,1.975275040E0,9.702873179E0
6.075572590E-1,6.798607111E-1,9.485447884E0,1.934298038E0,9.704506223E0
6.100633000E-1,7.492526174E-1,9.492626190E0,1.927119493E0,9.715200513E0
6.125692900E-1,8.620143533E-1,9.473484039E0,1.941476464E0,9.708722854E0
6.150753320E-1,9.409775138E-1,9.444769859E0,1.965703845E0,9.692941142E0
6.175813730E-1,1.036690354E0,9.423234940E0,1.965703845E0,9.681739266E0
6.200873630E-1,1.098903775E0,9.404091835E0,1.958226204E0,9.668463302E0
6.225934050E-1,1.182652593E0,9.387342453E0,1.963011861E0,9.663036844E0
6.250993940E-1,1.278365493E0,9.396913528E0,1.980060697E0,9.687974120E0
6.276054360E-1,1.376471281E0,9.420842171E0,1.984846354E0,9.725561960E0
6.301114780E-1,1.494018674E0,9.432806015E0,1.999203324E0,9.757393866E0
6.326174670E-1,1.601695657E0,9.461520195E0,2.018345833E0,9.806095720E0
6.351235090E-1,1.716551185E0,9.473484039E0,2.042274237E0,9.841967886E0
6.376294980E-1,1.833799481E0,9.492626190E0,2.066202402E0,9.886453605E0
6.401355400E-1,1.936690807E0,9.526125908E0,2.080559254E0,9.941155512E0
6.426415820E-1,2.003988981E0,9.542876244E0,2.090130568E0,9.972517467E0
6.451475710E-1,2.039881229E0,9.545269012E0,2.078166485E0,9.979581749E0
6.476536130E-1,1.999203324E0,9.547661781E0,2.049452543E0,9.967693572E0
6.501596030E-1,1.891227245E0,9.538089752E0,2.011167526E0,9.929586670E0
6.526656440E-1,1.800299883E0,9.528518677E0,2.013560295E0,9.903947340E0
6.551716340E-1,1.668694735E0,9.506983757E0,1.992024899E0,9.855731605E0
6.576776750E-1,1.527518153E0,9.504590988E0,1.992024899E0,9.830499721E0
6.601837170E-1,1.424626827E0,9.480662346E0,1.984846354E0,9.790410367E0
6.626897070E-1,1.345364571E0,9.478269577E0,1.968096614E0,9.773484756E0
6.651957480E-1,1.302293777E0,9.456734657E0,1.965703845E0,9.746270624E0
6.677017380E-1,1.280758262E0,9.432806015E0,1.953440547E0,9.717720978E0
6.702077800E-1,1.244866014E0,9.423234940E0,1.927119493E0,9.698496670E0
6.727138210E-1,1.206580877E0,9.439984322E0,1.907976985E0,9.706158745E0
6.752198110E-1,1.177866936E0,9.487840652E0,1.886441588E0,9.745006549E0
6.777258530E-1,1.163509965E0,9.521340370E0,1.884048700E0,9.775444613E0
6.802318420E-1,1.141974568E0,9.590732574E0,1.876870275E0,9.839151348E0
6.827378840E-1,1.134796143E0,9.650552750E0,1.840977907E0,9.889900420E0
6.852439250E-1,1.161117196E0,9.707980156E0,1.762014747E0,9.934675023E0
6.877499150E-1,1.177866936E0,9.755837440E0,1.654337764E0,9.964967041E0
6.902559570E-1,1.208973646E0,9.806086540E0,1.525125384E0,9.997347546E0
6.927619460E-1,1.259222865E0,9.810872078E0,1.405484200E0,9.990707632E0
6.952679880E-1,1.275972724E0,9.823135376E0,1.285543919E0,9.988729558E0
6.977740300E-1,1.230509043E0,9.825528145E0,1.206580877E0,9.975519698E0
7.002800190E-1,1.153938770E0,9.823135376E0,1.137188911E0,9.955840593E0
7.027860610E-1,1.039083242E0,9.815657616E0,1.094118118E0,9.930957802E0
7.052920500E-1,9.002995491E-1,9.801301003E0,1.074975610E0,9.901091515E0
7.077980920E-1,7.660023570E-1,9.782157898E0,1.067797065E0,9.870033603E0
7.103040820E-1,6.200401783E-1,9.751050949E0,1.072582722E0,9.829439360E0
7.128101230E-1,5.099703074E-1,9.727123260E0,1.055832982E0,9.797539483E0
7.153161650E-1,4.501497746E-1,9.719944954E0,1.043868899E0,9.786195737E0
7.178221550E-1,4.405784607E-1,9.722337723E0,1.031904817E0,9.786868127E0
7.203281960E-1,4.716851711E-1,9.712766647E0,1.027119160E0,9.778307451E0
7.228341860E-1,5.027918816E-1,9.710372925E0,1.010369420E0,9.775734672E0
7.253402280E-1,5.841478109E-1,9.715159416E0,1.019940615E0,9.786001737E0
7.278462690E-1,6.583253145E-1,9.727123260E0,1.070189953E0,9.807936872E0
7.303522590E-1,7.157530785E-1,9.748658180E0,1.132403374E0,9.840273176E0
7.328583000E-1,7.612167001E-1,9.770194054E0,1.197009563E0,9.872637672E0
7.353642900E-1,7.875377536E-1,9.767801285E0,1.283151150E0,9.883149019E0
7.378703320E-1,7.923234105E-1,9.779765129E0,1.405484200E0,9.911960866E0
7.403763210E-1,7.875377536E-1,9.763015747E0,1.503589988E0,9.909463913E0
7.428823630E-1,7.564310431E-1,9.746265411E0,1.589731574E0,9.903995349E0
7.453884050E-1,7.253243923E-1,9.696016312E0,1.647159338E0,9.861640922E0
7.478943940E-1,6.798607111E-1,9.672088623E0,1.709372640E0,9.845479356E0
7.504004360E-1,6.104688644E-1,9.640981674E0,1.781157374E0,9.823121778E0
7.529064250E-1,5.482555032E-1,9.648159981E0,1.855334878E0,9.840215578E0
7.554124670E-1,4.716851711E-1,9.660123825E0,1.910369754E0,9.858498456E0
7.579185090E-1,3.975076675E-1,9.672088623E0,1.994417667E0,9.883572862E0
7.604244980E-1,3.113660514E-1,9.672088623E0,2.063809633E0,9.894723713E0
7.629305400E-1,2.416750938E-1,9.684052467E0,2.111665964E0,9.914555572E0
7.654365300E-1,1.770688742E-1,9.684052467E0,2.166700840E0,9.925060106E0
7.679425710E-1,1.339980662E-1,9.676874161E0,2.154736757E0,9.914773800E0
7.704486130E-1,9.571290761E-2,9.657731056E0,2.090130568E0,9.881779997E0
7.729546030E-1,8.374879509E-2,9.643374443E0,2.013560295E0,9.851705922E0
7.754606440E-1,9.571290761E-2,9.617053032E0,1.939083695E0,9.811060878E0
7.779666340E-1,7.657032460E-2,9.619445801E0,1.898405671E0,9.805281466E0
7.804726750E-1,5.742774159E-2,9.633803368E0,1.872084618E0,9.814181886E0
7.829787170E-1,5.264209956E-2,9.650552750E0,1.850549221E0,9.826518813E0
7.854847070E-1,3.828516230E-2,9.688838005E0,1.788335800E0,9.852572891E0
7.879907480E-1,3.349951655E-2,9.753444672E0,1.752443433E0,9.909685321E0
7.904967380E-1,5.264209956E-2,9.794121742E0,1.726122379E0,9.945204390E0
7.930027800E-1,7.178468257E-2,9.825528145E0,1.704586983E0,9.972550985E0
7.955087690E-1,8.614161611E-2,9.832706451E0,1.663909078E0,9.972869695E0
7.980148110E-1,1.004985496E-1,9.823135376E0,1.637588024E0,9.959205948E0
8.005208530E-1,1.172483116E-1,9.801301003E0,1.616052628E0,9.934328090E0
8.030268420E-1,1.292124242E-1,9.767801285E0,1.606481314E0,9.899869696E0
8.055328840E-1,1.244267747E-1,9.712766647E0,1.628016710E0,9.849048501E0
8.080388730E-1,7.657032460E-2,9.645767212E0,1.659123421E0,9.787715701E0
8.105449150E-1,2.153540403E-2,9.578767776E0,1.706979871E0,9.729698668E0
8.130509050E-1,-5.742774159E-2,9.516554832E0,1.740479350E0,9.674574006E0
8.155569460E-1,-1.339980662E-1,9.495018959E0,1.735693693E0,9.653288202E0
8.180629880E-1,-2.129612118E-1,9.495018959E0,1.711765528E0,9.650434121E0
8.205689780E-1,-2.970091105E-1,9.506983757E0,1.685444474E0,9.659796977E0
8.230750190E-1,-3.616153300E-1,9.528518677E0,1.647159338E0,9.676598974E0
8.255810610E-1,-3.975076675E-1,9.545269012E0,1.604088426E0,9.687273742E0
8.280870500E-1,-4.166502357E-1,9.569196701E0,1.608874083E0,9.712445559E0
8.305930920E-1,-4.070789516E-1,9.581160545E0,1.608874083E0,9.723827769E0
8.330990820E-1,-3.783650696E-1,9.583553314E0,1.608874083E0,9.725025967E0
8.356051230E-1,-3.496512175E-1,9.605089188E0,1.625623941E0,9.747956067E0
8.381111130E-1,-2.826521695E-1,9.621838570E0,1.651944876E0,9.766708329E0
8.406171550E-1,-2.201396823E-1,9.626625061E0,1.714158297E0,9.780527093E0
8.431231960E-1,-1.435693651E-1,9.643374443E0,1.773978829E0,9.806236980E0
8.456291860E-1,-3.828516230E-2,9.679266930E0,1.783550143E0,9.842292678E0
8.481352280E-1,6.221338734E-2,9.700801849E0,1.754836321E0,9.858441943E0
8.506412170E-1,1.674975902E-1,9.707980156E0,1.718943954E0,9.860410867E0
8.531472590E-1,2.512463629E-1,9.741479874E0,1.668694735E0,9.886561434E0
8.556533000E-1,3.711866140E-1,9.727123260E0,1.628016710E0,9.869404482E0
8.581592900E-1,4.764707983E-1,9.705587387E0,1.620838284E0,9.851526161E0
8.606653320E-1,6.128616929E-1,9.679266930E0,1.618445396E0,9.832760205E0
8.631713210E-1,7.444669604E-1,9.631410599E0,1.639980793E0,9.798358953E0
8.656773630E-1,8.931210637E-1,9.609874725E0,1.671087503E0,9.794891062E0
8.681833530E-1,1.015154958E0,9.590732574E0,1.752443433E0,9.802231832E0
8.706893940E-1,1.134796143E0,9.564411163E0,1.809871197E0,9.800069231E0
8.731954360E-1,1.242473125E0,9.528518677E0,1.864906192E0,9.788477039E0
8.757014250E-1,1.311864972E0,9.506983757E0,1.910369754E0,9.785358576E0
8.782074670E-1,1.400399446E0,9.483055115E0,1.915155411E0,9.775340054E0
8.807134570E-1,1.501197100E0,9.418449402E0,1.929512382E0,9.730560102E0
8.832194980E-1,1.577767372E0,9.387342453E0,1.955833435E0,9.717861526E0
8.857255400E-1,1.632802367E0,9.351449966E0,1.960619092E0,9.693280522E0
8.882315300E-1,1.690230131E0,9.337093353E0,1.994417667E0,9.696179248E0
8.907375710E-1,1.752443433E0,9.356235504E0,2.059023857E0,9.739085175E0
8.932435610E-1,1.802692771E0,9.384949684E0,2.154736757E0,9.796421402E0
8.957496030E-1,1.848156333E0,9.399306297E0,2.260020971E0,9.842272882E0
8.982556440E-1,1.874477386E0,9.416056633E0,2.355733871E0,9.885609241E0
9.007616340E-1,1.855334878E0,9.435198784E0,2.461018085E0,9.925817529E0
9.032676750E-1,1.817049742E0,9.459127426E0,2.564208508E0,9.967543664E0
9.057736650E-1,1.759621978E0,9.451948166E0,2.626421928E0,9.966628607E0
9.082797070E-1,1.683051586E0,9.432806015E0,2.669492722E0,9.946692081E0
9.107857480E-1,1.601695657E0,9.389735222E0,2.707777977E0,9.902758105E0
9.132917380E-1,1.503589988E0,9.329915047E0,2.748456001E0,9.841854908E0
9.157977800E-1,1.431805253E0,9.277272224E0,2.762812853E0,9.785243026E0
9.183037690E-1,1.354935765E0,9.265308380E0,2.724527597E0,9.752171088E0
9.208098110E-1,1.299900889E0,9.262915611E0,2.662314177E0,9.725187130E0
9.233158000E-1,1.240080357E0,9.286844254E0,2.571387053E0,9.715724721E0
9.258218420E-1,1.199402332E0,9.325128555E0,2.492124796E0,9.726627089E0
9.283278840E-1,1.170688510E0,9.368199348E0,2.413161755E0,9.744589282E0
9.308338730E-1,1.144367456E0,9.406484604E0,2.329412937E0,9.757955427E0
9.333399150E-1,1.115653515E0,9.454340935E0,2.221735716E0,9.775753417E0
9.358459050E-1,1.077368379E0,9.521340370E0,2.097309113E0,9.808942378E0
9.383519460E-1,1.060618639E0,9.602696419E0,1.965703845E0,9.859040623E0
9.408579360E-1,1.017547846E0,9.645767212E0,1.845763564E0,9.873351602E0
9.433639780E-1,9.672985673E-1,9.664909363E0,1.711765528E0,9.862873858E0
9.458700190E-1,8.859425783E-1,9.691230774E0,1.582553029E0,9.859478802E0
9.483760090E-1,8.018946648E-1,9.753444672E0,1.472483277E0,9.896510750E0
9.508820500E-1,7.444669604E-1,9.786943436E0,1.374078393E0,9.910932565E0
9.533880400E-1,6.726822853E-1,9.849455833E0,1.283151150E0,9.955438642E0
9.558940820E-1,6.248258352E-1,9.916455269E0,1.194616675E0,1.000767712E1
9.584001230E-1,5.817549825E-1,9.969097137E0,1.084546804E0,1.004477866E1
9.609061130E-1,5.889334679E-1,1.002652550E1,9.792626500E-1,1.009143258E1
9.634121550E-1,6.032904387E-1,1.006480980E1,8.668000102E-1,1.012006413E1
9.659181960E-1,6.152545214E-1,1.010788059E1,7.037889361E-1,1.015101508E1
9.684241860E-1,6.296114326E-1,1.011027431E1,4.980062246E-1,1.014209384E1
9.709302280E-1,6.391827464E-1,1.016291618E1,2.512463629E-1,1.018609565E1
9.734362170E-1,6.367899179E-1,1.021077251E1,2.632104978E-2,1.023064365E1
9.759422590E-1,6.272186637E-1,1.024905777E1,-1.914258152E-1,1.027001618E1
9.784482480E-1,6.583253145E-1,1.032323551E1,-3.616153300E-1,1.035052411E1
9.809542900E-1,6.918248534E-1,1.036869907E1,-4.812564552E-1,1.040289142E1
9.834603320E-1,7.348956466E-1,1.043121147E1,-5.745765567E-1,1.047284024E1
9.859663210E-1,7.899305820E-1,1.046949673E1,-6.391827464E-1,1.051869320E1
9.884723630E-1,8.596215248E-1,1.047667503E1,-6.942176819E-1,1.053478083E1
9.909783530E-1,9.481559992E-1,1.044078255E1,-7.396813035E-1,1.050980820E1
9.934843940E-1,1.074975610E0,1.038335514E1,-7.636095285E-1,1.046674429E1
9.959904360E-1,1.225723386E0,1.029930687E1,-7.612167001E-1,1.039988320E1
9.984964250E-1,1.366899967E0,1.018684387E1,-7.348956466E-1,1.030438136E1
1.001002467E0,1.494018674E0,1.008873844E1,-7.253243923E-1,1.022452105E1
1.003508457E0,1.630409479E0,1.000977516E1,-7.133602500E-1,1.016674563E1
1.006014498E0,1.773978829E0,9.937990189E0,-6.487540603E-1,1.011590489E1
1.008520488E0,1.898405671E0,9.882955551E0,-5.745765567E-1,1.008002444E1
1.011026530E0,1.996810555E0,9.854242325E0,-4.645066857E-1,1.006524270E1
1.013532571E0,2.102094650E0,9.825528145E0,-3.616153300E-1,1.005438068E1
1.016038561E0,2.183450699E0,9.796515465E0,-2.440679073E-1,1.003985764E1
1.018544603E0,2.255235434E0,9.753444672E0,-1.004985496E-1,1.001128712E1
1.021050644E0,2.341377020E0,9.710372925E0,8.135596663E-2,9.988994318E0
1.023556634E0,2.422732830E0,9.645767212E0,2.608176768E-1,9.948793160E0
1.026062675E0,2.518445730E0,9.545269012E0,4.549354017E-1,9.882393214E0
1.028568665E0,2.626421928E0,9.411270142E0,6.296114326E-1,9.791144386E0
1.031074707E0,2.726920605E0,9.296415329E0,8.018946648E-1,9.721238039E0
1.033580696E0,2.844168901E0,9.162117958E0,9.672985673E-1,9.642062473E0
1.036086738E0,2.963809967E0,9.056833267E0,1.108475089E0,9.593701860E0
1.038592780E0,3.040380239E0,8.944371223E0,1.268794179E0,9.531816577E0
1.041098769E0,3.119642496E0,8.918049812E0,1.434198022E0,9.556186777E0
1.043604811E0,3.198605776E0,8.946763992E0,1.575374603E0,9.631067957E0
1.046110800E0,3.253640652E0,8.977870941E0,1.740479350E0,9.706575735E0
1.048616842E0,3.244069338E0,9.037691116E0,1.898405671E0,9.788145416E0
1.051122832E0,3.203391314E0,9.133403778E0,2.078166485E0,9.899472532E0
1.053628873E0,3.138785124E0,9.236295700E0,2.228914261E0,1.000645737E1
1.056134915E0,3.054737091E0,9.327521324E0,2.355733871E0,1.009373840E1
1.058640905E0,2.935096025E0,9.394520760E0,2.441875458E0,1.014073788E1
1.061146946E0,2.784348249E0,9.432806015E0,2.506481647E0,1.014952584E1
1.063652988E0,2.592922449E0,9.478269577E0,2.549851656E0,1.015197441E1
1.066158978E0,2.382055044E0,9.490233421E0,2.561815739E0,1.011442616E1
1.068665019E0,2.145165443E0,9.487840652E0,2.583351135E0,1.006451977E1
1.071171009E0,1.884048700E0,9.471091270E0,2.616850615E0,1.000495460E1
1.073677050E0,1.599302888E0,9.473484039E0,2.643171787E0,9.964488279E0
1.076183040E0,1.309472203E0,9.451948166E0,2.659921408E0,9.906019558E0
1.078689082E0,1.003190875E0,9.461520195E0,2.662314177E0,9.880013821E0
1.081195123E0,7.301099896E-1,9.461520195E0,2.652743101E0,9.853449698E0
1.083701113E0,4.597210586E-1,9.447162628E0,2.612065077E0,9.812395688E0
1.086207155E0,2.201396823E-1,9.449555397E0,2.585743904E0,9.799419892E0
1.088713144E0,-3.589234129E-2,9.435198784E0,2.573779821E0,9.780010579E0
1.091219186E0,-2.703889608E-1,9.425627708E0,2.566601276E0,9.772564147E0
1.093725228E0,-5.051847100E-1,9.413662910E0,2.568994284E0,9.770977055E0
1.096231217E0,-7.181459069E-1,9.423234940E0,2.559422970E0,9.791002819E0
1.098737259E0,-9.505487680E-1,9.435198784E0,2.552244425E0,9.820410921E0
1.101243248E0,-1.161117196E0,9.428020477E0,2.566601276E0,9.839878321E0
1.103749290E0,-1.345364571E0,9.432806015E0,2.576172590E0,9.870385016E0
1.106255332E0,-1.525125384E0,9.432806015E0,2.585743904E0,9.898985215E0
1.108761321E0,-1.692622900E0,9.430413246E0,2.583351135E0,9.923274125E0
1.111267363E0,-1.836192250E0,9.425627708E0,2.547458887E0,9.934968871E0
1.113773353E0,-1.955833435E0,9.432806015E0,2.484946251E0,9.948772367E0
1.116279394E0,-2.035095692E0,9.430413246E0,2.417947292E0,9.945892498E0
1.118785384E0,-2.066202402E0,9.449555397E0,2.372483730E0,9.959516485E0
1.121291425E0,-2.102094650E0,9.442377090E0,2.307877541E0,9.945028194E0
1.123797467E0,-2.070987940E0,9.471091270E0,2.238485575E0,9.949943646E0
1.126303457E0,-2.030309916E0,9.490233421E0,2.137987137E0,9.937689759E0
1.128809498E0,-1.963011861E0,9.530911446E0,2.042274237E0,9.942965986E0
1.131315488E0,-1.884048700E0,9.576375008E0,1.970489502E0,9.956878360E0
1.133821530E0,-1.754836321E0,9.619445801E0,1.898405671E0,9.960779694E0
1.136327571E0,-1.620838284E0,9.679266930E0,1.800299883E0,9.977795584E0
1.138833561E0,-1.479661703E0,9.741479874E0,1.666301847E0,9.993117168E0
1.141339603E0,-1.335793257E0,9.803693771E0,1.529910922E0,1.001186210E1
1.143845592E0,-1.187438250E0,9.868598938E0,1.395613790E0,1.003728013E1
1.146351634E0,-1.017547846E0,9.906884193E0,1.316650629E0,1.004566209E1
1.148857623E0,-8.258228898E-1,9.935597420E0,1.290329576E0,1.005301099E1
1.151363665E0,-6.463612318E-1,9.945169449E0,1.271187067E0,1.004689478E1
1.153869707E0,-4.764707983E-1,9.947562218E0,1.261615753E0,1.003856030E1
1.156375696E0,-3.185445070E-1,9.923633575E0,1.273579836E0,1.001009388E1
1.158881738E0,-1.986042857E-1,9.878170013E0,1.290329576E0,9.964067287E0
1.161387728E0,-1.220339537E-1,9.820742607E0,1.314257860E0,9.909043918E0
1.163893769E0,-6.939185411E-2,9.782157898E0,1.366899967E0,9.877441161E0
1.166399811E0,-7.178468257E-2,9.734301567E0,1.482054472E0,9.846738825E0
1.168905800E0,-8.853443712E-2,9.662516594E0,1.613659739E0,9.796732263E0
1.171411842E0,-1.124626622E-1,9.600303650E0,1.745265007E0,9.758300465E0
1.173917832E0,-1.555334777E-1,9.562018394E0,1.919941068E0,9.754104784E0
1.176423873E0,-1.603191197E-1,9.518947601E0,2.082952023E0,9.745499207E0
1.178929915E0,-1.363908947E-1,9.468698502E0,2.197807550E0,9.721379111E0
1.181435905E0,-7.657032460E-2,9.442377090E0,2.312663078E0,9.721767259E0
1.183941946E0,2.871387079E-2,9.389735222E0,2.396411896E0,9.690755492E0
1.186447936E0,1.627119333E-1,9.332307816E0,2.439482689E0,9.647254538E0
1.188953978E0,3.352942765E-1,9.265308380E0,2.434697151E0,9.585724378E0
1.191460019E0,4.956133962E-1,9.217152596E0,2.540280342E0,9.573638745E0
1.193966009E0,6.272186637E-1,9.219545364E0,2.624029160E0,9.606193263E0
1.196472050E0,7.325028181E-1,9.205188751E0,2.635993242E0,9.603151602E0
1.198978040E0,7.660023570E-1,9.255437851E0,2.607279301E0,9.646128486E0
1.201484082E0,7.325028181E-1,9.320343018E0,2.557030201E0,9.692458810E0
1.203990123E0,6.846463680E-1,9.358628273E0,2.501696110E0,9.711392651E0
1.206496113E0,5.530411601E-1,9.423234940E0,2.487339020E0,9.761663109E0
1.209002155E0,3.927220106E-1,9.459127426E0,2.501696110E0,9.792231904E0
1.211508144E0,2.057827413E-1,9.495018959E0,2.506481647E0,9.822432582E0
1.214014186E0,1.196411345E-2,9.521340370E0,2.477767944E0,9.838465306E0
1.216520175E0,-1.962114573E-1,9.518947601E0,2.446661234E0,9.830310960E0
1.219026217E0,-3.975076675E-1,9.518947601E0,2.434697151E0,9.833418836E0
1.221532259E0,-5.889334679E-1,9.492626190E0,2.463410854E0,9.824723286E0
1.224038248E0,-7.612167001E-1,9.480662346E0,2.468196630E0,9.826210052E0
1.226544290E0,-9.050851464E-1,9.466305733E0,2.477767944E0,9.826976001E0
1.229050280E0,-1.015154958E0,9.463912964E0,2.480160713E0,9.836024875E0
1.231556321E0,-1.070189953E0,9.466305733E0,2.482553482E0,9.844761173E0
1.234062363E0,-1.103689432E0,9.483055115E0,2.453839540E0,9.857372528E0
1.236568353E0,-1.110867858E0,9.526125908E0,2.425125837E0,9.892539489E0
1.239074394E0,-1.074975610E0,9.554840088E0,2.350948334E0,9.898358436E0
1.241580384E0,-1.015154958E0,9.590732574E0,2.216950178E0,9.895835437E0
1.244086425E0,-9.290133715E-1,9.612267494E0,2.082952023E0,9.879141732E0
1.246592467E0,-8.234301209E-1,9.638588905E0,1.948654890E0,9.868013434E0
1.249098457E0,-6.942176819E-1,9.681659698E0,1.836192250E0,9.878667657E0
1.251604498E0,-5.362913609E-1,9.676874161E0,1.747657895E0,9.848035848E0
1.254110488E0,-3.687937856E-1,9.640981674E0,1.675873160E0,9.792501588E0
1.256616530E0,-1.914258152E-1,9.600303650E0,1.592124343E0,9.733310533E0
1.259122571E0,-1.674975827E-2,9.550054550E0,1.448554993E0,9.659302979E0
1.261628561E0,1.507478207E-1,9.492626190E0,1.287936807E0,9.580785882E0
1.264134603E0,3.376871049E-1,9.471091270E0,1.127617717E0,9.543957468E0
1.266640592E0,5.171487927E-1,9.456734657E0,1.017547846E0,9.525370170E0
1.269146634E0,7.253243923E-1,9.459127426E0,9.385846853E-1,9.533211859E0
1.271652623E0,9.337990284E-1,9.475876808E0,9.170492887E-1,9.565835108E0
1.274158665E0,1.115653515E0,9.511769295E0,9.194421172E-1,9.621008871E0
1.276664707E0,1.283151150E0,9.545269012E0,9.242277741E-1,9.675372570E0
1.279170696E0,1.410269856E0,9.602696419E0,8.979067206E-1,9.747147073E0
1.281676738E0,1.494018674E0,9.667302132E0,8.811569214E-1,9.821672965E0
1.284182728E0,1.549053550E0,9.741479874E0,8.428717852E-1,9.899819689E0
1.286688769E0,1.553839207E0,9.832706451E0,8.210372925E-1,9.988525150E0
1.289194811E0,1.503589988E0,9.926026344E0,7.755736113E-1,1.006917555E1
1.291700800E0,1.398006678E0,1.002413273E1,6.966105103E-1,1.014509368E1
1.294206842E0,1.268794179E0,1.010548782E1,6.415755749E-1,1.020501553E1
1.296712832E0,1.118046403E0,1.016291618E1,6.152545214E-1,1.024272577E1
1.299218873E0,9.601200819E-1,1.020120144E1,6.032904387E-1,1.026402946E1
1.301724915E0,8.210372925E-1,1.024905777E1,5.745765567E-1,1.029793308E1
1.304230905E0,6.846463680E-1,1.025384331E1,5.410770178E-1,1.029090898E1
1.306736946E0,5.769693851E-1,1.026341438E1,4.692923427E-1,1.029032574E1
1.309242936E0,4.836492836E-1,1.022512913E1,4.118646085E-1,1.024484333E1
1.311748978E0,4.334000051E-1,1.017727280E1,3.879363835E-1,1.019388110E1
1.314255019E0,3.903291821E-1,1.012463093E1,3.855435550E-1,1.013948481E1
1.316761009E0,3.544368446E-1,1.006720352E1,3.879363835E-1,1.008090804E1
1.319267050E0,3.352942765E-1,1.003131104E1,3.855435550E-1,1.004431517E1
1.321773040E0,3.137588799E-1,1.000738239E1,3.903291821E-1,1.001990538E1
1.324279082E0,2.751746178E-1,9.995418549E0,4.190430641E-1,1.000798232E1
1.326785123E0,2.273181528E-1,9.959526062E0,4.501497746E-1,9.972284981E0
1.329291113E0,1.698904037E-1,9.933204651E0,4.836492836E-1,9.946423177E0
1.331797155E0,1.028913707E-1,9.899705887E0,5.410770178E-1,9.915015261E0
1.334303144E0,1.674975827E-2,9.870991707E0,6.032904387E-1,9.889424512E0
1.336809186E0,-7.417750359E-2,9.847063065E0,6.846463680E-1,9.871114119E0
1.339315175E0,-1.603191197E-1,9.844670296E0,7.707880139E-1,9.876099919E0
1.341821217E0,-2.512463629E-1,9.832706451E0,8.644071817E-1,9.873826040E0
1.344327259E0,-3.400799036E-1,9.815657616E0,9.577272534E-1,9.868132055E0
1.346833248E0,-3.927220106E-1,9.784550667E0,1.039083242E0,9.847403532E0
1.349339290E0,-4.549354017E-1,9.774979591E0,1.106082320E0,9.847873391E0
1.351845332E0,-4.692923427E-1,9.724730492E0,1.168295622E0,9.805892774E0
1.354351321E0,-4.836492836E-1,9.693623543E0,1.206580877E0,9.780393215E0
1.356857363E0,-4.621138871E-1,9.664909363E0,1.230509043E0,9.753879984E0
1.359363353E0,-3.975076675E-1,9.640981674E0,1.261615753E0,9.731300750E0
1.361869394E0,-2.994019389E-1,9.624231339E0,1.304686546E0,9.716875905E0
1.364375436E0,-2.057827413E-1,9.626625061E0,1.381256819E0,9.727390555E0
1.366881425E0,-1.124626622E-1,9.624231339E0,1.446162224E0,9.732926687E0
1.369387467E0,-4.785645287E-3,9.617053032E0,1.494018674E0,9.732410992E0
1.371893457E0,7.657032460E-2,9.621838570E0,1.558624864E0,9.747561333E0
1.374399498E0,1.627119333E-1,9.629017830E0,1.594517231E0,9.761503201E0
1.376905488E0,2.297109663E-1,9.648159981E0,1.620838284E0,9.786055124E0
1.379411530E0,2.799602449E-1,9.667302132E0,1.644766450E0,9.810217374E0
1.381917571E0,3.376871049E-1,9.688838005E0,1.668694735E0,9.837284005E0
1.384423561E0,3.424727321E-1,9.717552185E0,1.687837243E0,9.868986909E0
1.386929603E0,3.711866140E-1,9.703194618E0,1.699801445E0,9.857945539E0
1.389435592E0,3.903291821E-1,9.686445236E0,1.699801445E0,9.842200117E0
1.391941634E0,3.807578981E-1,9.700801849E0,1.697408557E0,9.855543055E0
1.394447675E0,3.687937856E-1,9.696016312E0,1.709372640E0,9.852446193E0
1.396953665E0,3.664009571E-1,9.707980156E0,1.733300924E0,9.868305856E0
1.399459707E0,3.424727321E-1,9.693623543E0,1.771586061E0,9.860128910E0
1.401965696E0,3.329014480E-1,9.681659698E0,1.814656854E0,9.855878316E0
1.404471738E0,3.113660514E-1,9.667302132E0,1.840977907E0,9.845957494E0
1.406977780E0,2.775674164E-1,9.652945518E0,1.864906192E0,9.835358456E0
1.409483769E0,2.321037948E-1,9.640981674E0,1.910369754E0,9.831170450E0
1.411989811E0,2.153540403E-1,9.629017830E0,1.929512382E0,9.822798978E0
1.414495800E0,1.914258152E-1,9.602696419E0,1.963011861E0,9.803154488E0
1.417001842E0,1.627119333E-1,9.612267494E0,2.008774519E0,9.821269603E0
1.419507884E0,1.603191197E-1,9.619445801E0,2.047059774E0,9.836152370E0
1.422013873E0,1.579262912E-1,9.631410599E0,2.075773716E0,9.853823997E0
1.424519915E0,1.579262912E-1,9.645767212E0,2.061416626E0,9.864846898E0
1.427025905E0,1.555334777E-1,9.657731056E0,2.049452543E0,9.874017194E0
1.429531946E0,1.698904037E-1,9.679266930E0,2.037488461E0,9.892847430E0
1.432037936E0,1.794617027E-1,9.693623543E0,1.992024899E0,9.897813248E0
1.434543978E0,1.818545163E-1,9.681659698E0,1.919941068E0,9.871868075E0
1.437050019E0,1.962114573E-1,9.667302132E0,1.852941990E0,9.845233540E0
1.439556009E0,2.153540403E-1,9.650552750E0,1.747657895E0,9.809885517E0
1.442062050E0,2.344966233E-1,9.617053032E0,1.668694735E0,9.763566961E0
1.444568040E0,2.994019389E-1,9.585947037E0,1.625623941E0,9.727418738E0
1.447074082E0,4.214358926E-1,9.554840088E0,1.582553029E0,9.694176159E0
1.449580123E0,5.841478109E-1,9.516554832E0,1.556231976E0,9.660636755E0
1.452086113E0,7.779664397E-1,9.435198784E0,1.508375525E0,9.586626341E0
1.454592155E0,9.720842242E-1,9.349057198E0,1.431805253E0,9.507885386E0
1.457098144E0,1.189831018E0,9.272486687E0,1.335793257E0,9.443466039E0
1.459604186E0,1.422233939E0,9.214759827E0,1.228116274E0,9.404404161E0
1.462110228E0,1.616052628E0,9.166903496E0,1.132403374E0,9.376890913E0
1.464616217E0,1.764407635E0,9.154939651E0,1.063011408E0,9.383818390E0
1.467122259E0,1.874477386E0,9.164510727E0,1.015154958E0,9.409169035E0
1.469628248E0,1.927119493E0,9.217152596E0,1.012762189E0,9.470764423E0
1.472134290E0,1.931905150E0,9.284450531E0,1.010369420E0,9.536987236E0
1.474640280E0,1.864906192E0,9.344271660E0,1.039083242E0,9.585039486E0
1.477146321E0,1.747657895E0,9.423234940E0,1.055832982E0,9.641911021E0
1.479652363E0,1.575374603E0,9.530911446E0,1.086939692E0,9.721189023E0
1.482158353E0,1.362114310E0,9.652945518E0,1.149153113E0,9.816071794E0
1.484664394E0,1.165902853E0,9.715159416E0,1.242473125E0,9.863437099E0
1.487170384E0,9.792626500E-1,9.751050949E0,1.295115232E0,9.885305934E0
1.489676425E0,7.827520967E-1,9.784550667E0,1.352542996E0,9.908557168E0
1.492182467E0,6.104688644E-1,9.782157898E0,1.395613790E0,9.900051678E0
1.494688457E0,4.597210586E-1,9.765408516E0,1.450947881E0,9.883308995E0
1.497194498E0,3.400799036E-1,9.734301567E0,1.503589988E0,9.855610797E0
1.499700540E0,2.225325108E-1,9.681659698E0,1.546660781E0,9.806947273E0
1.502233613E0,4.785645381E-2,9.571589470E0,1.632802367E0,9.709977281E0
1.504779550E0,4.785645381E-2,9.571589470E0,1.632802367E0,9.709977281E0
1.507259134E0,-2.632104978E-2,9.518947601E0,1.680658817E0,9.666212821E0
1.509725853E0,-8.853443712E-2,9.490233421E0,1.742872238E0,9.649350878E0
1.512231842E0,-1.411765367E-1,9.478269577E0,1.800299883E0,9.648761820E0
1.514737884E0,-1.962114573E-1,9.475876808E0,1.850549221E0,9.656876961E0
1.517243925E0,-2.560320199E-1,9.473484039E0,1.874477386E0,9.660544380E0
1.519749915E0,-3.089732230E-1,9.495018959E0,1.900798440E0,9.688337535E0
1.522255957E0,-3.568296731E-1,9.511769295E0,1.931905150E0,9.712535202E0
1.524761946E0,-4.046861231E-1,9.562018394E0,1.996810555E0,9.776667072E0
1.527267988E0,-4.166502357E-1,9.588339806E0,2.070987940E0,9.818291536E0
1.529773978E0,-4.142574072E-1,9.612267494E0,2.121237278E0,9.852255740E0
1.532280019E0,-4.142574072E-1,9.638588905E0,2.159522533E0,9.886229962E0
1.534786061E0,-3.855435550E-1,9.672088623E0,2.176272154E0,9.921396205E0
1.537292050E0,-3.400799036E-1,9.662516594E0,2.171486616E0,9.909350907E0
1.539798092E0,-2.727817893E-1,9.664909363E0,2.181057930E0,9.911705029E0
1.542304082E0,-2.081755698E-1,9.664909363E0,2.228914261E0,9.920779649E0
1.544810123E0,-1.316052526E-1,9.657731056E0,2.271985054E0,9.922247990E0
1.547316165E0,-5.503492057E-2,9.629017830E0,2.307877541E0,9.901884263E0
1.549822155E0,2.153540403E-2,9.609874725E0,2.310270309E0,9.883698949E0
1.552328196E0,1.124626622E-1,9.602696419E0,2.283949137E0,9.871213199E0
1.554834186E0,1.818545163E-1,9.578767776E0,2.240878344E0,9.839075106E0
1.557340228E0,2.608176768E-1,9.550054550E0,2.195414782E0,9.802622804E0
1.559846269E0,3.376871049E-1,9.538089752E0,2.171486616E0,9.787979507E0
1.562352259E0,4.118646085E-1,9.538089752E0,2.145165443E0,9.785015246E0
1.564858300E0,4.908277392E-1,9.535696983E0,2.121237278E0,9.781108139E0
1.567364290E0,5.578267574E-1,9.526125908E0,2.118844509E0,9.774852815E0
1.569870332E0,6.104688644E-1,9.535696983E0,2.094916344E0,9.782170704E0
1.572376373E0,6.535396576E-1,9.538089752E0,2.068595171E0,9.781684731E0
1.574882363E0,6.607181430E-1,9.559625626E0,2.059023857E0,9.801151453E0
1.577388405E0,6.415755749E-1,9.588339806E0,2.082952023E0,9.832932857E0
1.579894394E0,6.056832075E-1,9.581160545E0,2.142772675E0,9.836511794E0
1.582400436E0,5.793621540E-1,9.578767776E0,2.188236237E0,9.842602829E0
1.584906478E0,5.530411601E-1,9.583553314E0,2.216950178E0,9.852168124E0
1.587412467E0,5.626124144E-1,9.564411163E0,2.228914261E0,9.836795841E0
1.589918509E0,5.985047817E-1,9.523733139E0,2.255235434E0,9.805395848E0
1.592424498E0,6.583253145E-1,9.497411728E0,2.286342144E0,9.790892817E0
1.594930540E0,7.588238716E-1,9.444769859E0,2.315055847E0,9.753921003E0
1.597436582E0,8.811569214E-1,9.408877373E0,2.324627161E0,9.731767690E0
1.599942571E0,1.005583763E0,9.339486122E0,2.350948334E0,9.683189443E0
1.602448613E0,1.149153113E0,9.308379173E0,2.353341103E0,9.669782317E0
1.604954603E0,1.268794179E0,9.291629791E0,2.350948334E0,9.668049489E0
1.607460644E0,1.364507079E0,9.277272224E0,2.343769789E0,9.665553079E0
1.609966686E0,1.458126307E0,9.274879456E0,2.269592285E0,9.659222038E0
1.612472675E0,1.558624864E0,9.282057762E0,2.176272154E0,9.660334790E0
1.614978717E0,1.618445396E0,9.310771942E0,2.068595171E0,9.674136946E0
1.617484707E0,1.671087503E0,9.346664429E0,1.987239242E0,9.700607671E0
1.619990748E0,1.695015788E0,9.377771378E0,1.912762642E0,9.719790916E0
1.622496738E0,1.699801445E0,9.418449402E0,1.893620014E0,9.756142211E0
1.625002780E0,1.675873160E0,9.459127426E0,1.900798440E0,9.792684883E0
1.627508821E0,1.642373681E0,9.499805450E0,1.915155411E0,9.829115685E0
1.630014811E0,1.568196177E0,9.557232857E0,1.884048700E0,9.866589007E0
1.632520853E0,1.462911963E0,9.576375008E0,1.862513304E0,9.864888520E0
1.635026842E0,1.323829174E0,9.609874725E0,1.819442511E0,9.869781506E0
1.637532884E0,1.141974568E0,9.657731056E0,1.735693693E0,9.878689572E0
1.640038925E0,9.577272534E-1,9.712766647E0,1.651944876E0,9.898686747E0
1.642544915E0,7.755736113E-1,9.748658180E0,1.551446438E0,9.901759278E0
1.645050957E0,6.080760360E-1,9.810872078E0,1.503589988E0,9.944030885E0
1.647556946E0,4.166502357E-1,9.847063065E0,1.443769336E0,9.961060100E0
1.650062988E0,2.321037948E-1,9.890133858E0,1.410269856E0,9.992871507E0
1.652568978E0,6.939185411E-2,9.923633575E0,1.366899967E0,1.001757127E1
1.655075019E0,-9.571290761E-2,9.945169449E0,1.347757339E0,1.003653357E1
1.657581061E0,-2.105683982E-1,9.978668213E0,1.333400369E0,1.006956379E1
1.660087050E0,-3.424727321E-1,9.988240242E0,1.311864972E0,1.007984228E1
1.662593092E0,-4.405784607E-1,9.981060982E0,1.311864972E0,1.007654094E1
1.665099134E0,-5.267201066E-1,9.988240242E0,1.333400369E0,1.009060621E1
1.667605123E0,-5.841478109E-1,9.976275444E0,1.362114310E0,1.008576501E1
1.670111165E0,-6.128616929E-1,9.959526062E0,1.369292736E0,1.007187775E1
1.672617155E0,-6.320042610E-1,9.916455269E0,1.415055513E0,1.003682702E1
1.675123196E0,-6.391827464E-1,9.863813400E0,1.462911963E0,9.992170975E0
1.677629186E0,-6.415755749E-1,9.823135376E0,1.527518153E0,9.961873295E0
1.680135228E0,-6.320042610E-1,9.777372360E0,1.596910000E0,9.927062063E0
1.682641269E0,-5.889334679E-1,9.705587387E0,1.666301847E0,9.865182766E0
1.685147259E0,-5.315057039E-1,9.652945518E0,1.738086581E0,9.822565880E0
1.687653300E0,-4.860421121E-1,9.585947037E0,1.797907114E0,9.765197772E0
1.690159290E0,-4.214358926E-1,9.511769295E0,1.867298961E0,9.702482607E0
1.692665332E0,-3.424727321E-1,9.442377090E0,1.953440547E0,9.648404151E0
1.695171373E0,-2.440679073E-1,9.413662910E0,2.051845312E0,9.637774002E0
1.697677363E0,-1.316052526E-1,9.392127991E0,2.133201361E0,9.632234226E0
1.700183405E0,-3.110669367E-2,9.389735222E0,2.185843468E0,9.640850939E0
1.702689446E0,9.810572863E-2,9.401699066E0,2.233700037E0,9.663901175E0
1.705195436E0,1.770688742E-1,9.413662910E0,2.274377823E0,9.686134278E0
1.707701478E0,2.416750938E-1,9.437591553E0,2.291127682E0,9.714721160E0
1.710207467E0,2.922234535E-1,9.471091270E0,2.291127682E0,9.748652751E0
1.712713509E0,3.233301640E-1,9.495018959E0,2.279163599E0,9.770082607E0
1.715219498E0,3.329014480E-1,9.518947601E0,2.209771633E0,9.777743987E0
1.717725540E0,3.329014480E-1,9.554840088E0,2.128415823E0,9.794689704E0
1.720231582E0,3.113660514E-1,9.573982239E0,2.047059774E0,9.795332483E0
1.722737571E0,2.632105052E-1,9.581160545E0,1.970489502E0,9.785231016E0
1.725243613E0,2.344966233E-1,9.602696419E0,1.910369754E0,9.793685709E0
1.727749603E0,2.009970993E-1,9.619445801E0,1.855334878E0,9.798796092E0
1.730255644E0,1.866401732E-1,9.617053032E0,1.795514345E0,9.785009726E0
1.732761686E0,1.603191197E-1,9.614660263E0,1.742872238E0,9.772665851E0
1.735267675E0,1.363908947E-1,9.600303650E0,1.718943954E0,9.753932590E0
1.737773717E0,1.268195957E-1,9.581160545E0,1.702194214E0,9.732018585E0
1.740279707E0,1.124626622E-1,9.552447319E0,1.711765528E0,9.705258310E0
1.742785748E0,1.124626622E-1,9.509376526E0,1.721336842E0,9.664568810E0
1.745291790E0,1.435693651E-1,9.454340935E0,1.728515267E0,9.612124620E0
1.747797780E0,1.914258152E-1,9.435198784E0,1.742872238E0,9.596729837E0
1.750303821E0,2.632105052E-1,9.408877373E0,1.742872238E0,9.572557486E0
1.752809811E0,3.616153300E-1,9.384949684E0,1.742872238E0,9.552258888E0
1.755315853E0,4.645066857E-1,9.375378609E0,1.740479350E0,9.546871681E0
1.757821842E0,6.008976102E-1,9.358628273E0,1.738086581E0,9.537606935E0
1.760327884E0,7.301099896E-1,9.353842735E0,1.723729610E0,9.539322737E0
1.762833925E0,8.644071817E-1,9.387342453E0,1.730908036E0,9.584646093E0
1.765339915E0,9.768698215E-1,9.406484604E0,1.704586983E0,9.609466376E0
1.767845957E0,1.096511006E0,9.437591553E0,1.625623941E0,9.639145393E0
1.770351946E0,1.218544960E0,9.480662346E0,1.529910922E0,9.680311863E0
1.772857988E0,1.331007600E0,9.530911446E0,1.462911963E0,9.733959401E0
1.775364030E0,1.434198022E0,9.578767776E0,1.400399446E0,9.786257440E0
1.777870019E0,1.503589988E0,9.612267494E0,1.369292736E0,9.825041060E0
1.780376061E0,1.537089467E0,9.636196136E0,1.338186026E0,9.849348296E0
1.782882050E0,1.549053550E0,9.674481392E0,1.316650629E0,9.885784035E0
1.785388092E0,1.539482236E0,9.693623543E0,1.273579836E0,9.897390997E0
1.787894134E0,1.467697620E0,9.700801849E0,1.232901812E0,9.888363854E0
1.790400123E0,1.381256819E0,9.727123260E0,1.187438250E0,9.896201641E0
1.792906165E0,1.244866014E0,9.755837440E0,1.149153113E0,9.901848738E0
1.795412207E0,1.079761267E0,9.777372360E0,1.108475089E0,9.899071254E0
1.797918196E0,8.835497499E-1,9.791728973E0,1.058225870E0,9.888299067E0
1.800424238E0,6.702894568E-1,9.827920914E0,1.005583763E0,9.901945069E0
1.802930228E0,4.668995142E-1,9.851848602E0,9.529415965E-1,9.908835135E0
1.805436269E0,2.608176768E-1,9.870991707E0,9.098708034E-1,9.916267847E0
1.807942259E0,7.417750359E-2,9.890133858E0,8.955138922E-1,9.930870816E0
1.810448300E0,-1.052841991E-1,9.882955551E0,8.668000102E-1,9.921453394E0
1.812954342E0,-2.656033039E-1,9.887741089E0,8.500502706E-1,9.927766839E0
1.815460332E0,-4.118646085E-1,9.880562782E0,8.210372925E-1,9.923167619E0
1.817966373E0,-5.123631358E-1,9.870991707E0,8.377870321E-1,9.919721789E0
1.820472363E0,-6.032904387E-1,9.866206169E0,8.620143533E-1,9.922149579E0
1.822978405E0,-6.583253145E-1,9.849455833E0,8.787640929E-1,9.910469150E0
1.825484446E0,-7.181459069E-1,9.839884758E0,9.385846853E-1,9.910600729E0
1.827990436E0,-7.851449251E-1,9.832706451E0,1.003190875E0,9.914885811E0
1.830496478E0,-8.524430394E-1,9.818050385E0,1.089332461E0,9.915009718E0
1.833002467E0,-8.979067206E-1,9.820742607E0,1.192223907E0,9.933509937E0
1.835508509E0,-9.242277741E-1,9.825528145E0,1.271187067E0,9.950432999E0
1.838014550E0,-9.433703423E-1,9.813264847E0,1.357328653E0,9.951505194E0
1.840520540E0,-9.768698215E-1,9.815657616E0,1.441376567E0,9.968900415E0
1.843026582E0,-1.003190875E0,9.818050385E0,1.520339727E0,9.985586521E0
1.845532571E0,-9.768698215E-1,9.825528145E0,1.604088426E0,1.000341830E1
1.848038613E0,-9.553344250E-1,9.823135376E0,1.663909078E0,1.000875846E1
1.850544655E0,-9.242277741E-1,9.820742607E0,1.740479350E0,1.001650891E1
1.853050644E0,-8.548358679E-1,9.823135376E0,1.807478428E0,1.002455541E1
1.855556686E0,-7.660023570E-1,9.823135376E0,1.860120535E0,1.002700337E1
1.858062675E0,-6.702894568E-1,9.801301003E0,1.912762642E0,1.000866875E1
1.860568717E0,-5.865406394E-1,9.777372360E0,1.963011861E0,9.989717501E0
1.863074759E0,-4.764707983E-1,9.698409081E0,2.006381750E0,9.915227221E0
1.865580748E0,-3.759722710E-1,9.655338287E0,2.056631088E0,9.879101377E0
1.868086790E0,-2.850449979E-1,9.612267494E0,2.090130568E0,9.841015335E0
1.870592780E0,-2.057827413E-1,9.562018394E0,2.109273195E0,9.794058185E0
1.873098821E0,-1.316052526E-1,9.530911446E0,2.135594130E0,9.768129566E0
1.875604863E0,-6.221338734E-2,9.490233421E0,2.152343988E0,9.731443138E0
1.878110853E0,-3.110669367E-2,9.475876808E0,2.157129526E0,9.718354629E0
1.880616894E0,2.632104978E-2,9.468698502E0,2.135594130E0,9.706580572E0
1.883122884E0,7.178468257E-2,9.471091270E0,2.092523336E0,9.699761688E0
1.885628925E0,1.052841991E-1,9.478269577E0,2.063809633E0,9.700927231E0
1.888134967E0,1.220339537E-1,9.516554832E0,2.013560295E0,9.728007670E0
1.890640957E0,1.363908947E-1,9.533304214E0,1.980060697E0,9.737716985E0
1.893146998E0,1.339980662E-1,9.554840088E0,1.951047778E0,9.752923255E0
1.895652988E0,9.092725813E-2,9.576375008E0,1.922333837E0,9.767834634E0
1.898159030E0,4.546362907E-2,9.593125343E0,1.896012783E0,9.778802855E0
1.900665071E0,-3.589234129E-2,9.614660263E0,1.864906192E0,9.793919304E0
1.903171061E0,-1.076770201E-1,9.631410599E0,1.862513304E0,9.810434255E0
1.905677103E0,-2.177468538E-1,9.617053032E0,1.850549221E0,9.795899914E0
1.908183092E0,-3.089732230E-1,9.626625061E0,1.845763564E0,9.806845449E0
1.910689134E0,-3.999004960E-1,9.640981674E0,1.829013824E0,9.821086479E0
1.913195175E0,-4.860421121E-1,9.617053032E0,1.795514345E0,9.795295693E0
1.915701165E0,-5.362913609E-1,9.619445801E0,1.752443433E0,9.792466692E0
1.918207207E0,-5.434698462E-1,9.626625061E0,1.687837243E0,9.788568031E0
1.920713196E0,-5.362913609E-1,9.629017830E0,1.635195136E0,9.781587597E0
1.923219238E0,-5.099703074E-1,9.614660263E0,1.582553029E0,9.757368281E0
1.925725228E0,-4.621138871E-1,9.590732574E0,1.522732496E0,9.721852437E0
1.928231269E0,-3.975076675E-1,9.590732574E0,1.479661703E0,9.712340728E0
1.930737311E0,-3.209373355E-1,9.576375008E0,1.410269856E0,9.684979098E0
1.933243300E0,-2.081755698E-1,9.571589470E0,1.350150228E0,9.668586644E0
1.935749342E0,-1.459621787E-1,9.569196701E0,1.302293777E0,9.658509178E0
1.938255332E0,-7.417750359E-2,9.578767776E0,1.271187067E0,9.663033218E0
1.940761373E0,-1.435693540E-2,9.583553314E0,1.256830096E0,9.665625802E0
1.943267415E0,1.674975827E-2,9.578767776E0,1.232901812E0,9.657800969E0
1.945773405E0,4.785645381E-2,9.605089188E0,1.240080357E0,9.684927869E0
1.948279446E0,5.503492057E-2,9.640981674E0,1.249651670E0,9.721789227E0
1.950785436E0,3.828516230E-2,9.664909363E0,1.271187067E0,9.748223187E0
1.953291478E0,1.435693540E-2,9.696016312E0,1.280758262E0,9.780249494E0
1.955797519E0,9.571290575E-3,9.722337723E0,1.309472203E0,9.810130471E0
1.958303509E0,1.674975827E-2,9.736694336E0,1.323829174E0,9.826292324E0
1.960809550E0,1.914258115E-2,9.755837440E0,1.369292736E0,9.851481777E0
1.963315540E0,2.871387079E-2,9.770194054E0,1.390828133E0,9.868734429E0
1.965821582E0,2.392822690E-2,9.770194054E0,1.405484200E0,9.870797852E0
1.968327623E0,3.110669367E-2,9.753444672E0,1.419841170E0,9.856297456E0
1.970833613E0,2.871387079E-2,9.748658180E0,1.429412484E0,9.852937676E0
1.973339655E0,4.067798331E-2,9.739087105E0,1.450947881E0,9.846660453E0
1.975845644E0,2.392822690E-2,9.741479874E0,1.455733418E0,9.849678293E0
1.978351686E0,-2.392822644E-3,9.715159416E0,1.479661703E0,9.827193239E0
1.980857728E0,-1.435693540E-2,9.710372925E0,1.503589988E0,9.826104585E0
1.983363717E0,-3.828516230E-2,9.712766647E0,1.520339727E0,9.831110547E0
1.985869759E0,-7.657032460E-2,9.703194618E0,1.544267893E0,9.825610014E0
1.988375748E0,-9.810572863E-2,9.688838005E0,1.570588946E0,9.815801356E0
1.990881790E0,-1.148554832E-1,9.698409081E0,1.584945917E0,9.827735448E0
1.993387832E0,-1.268195957E-1,9.700801849E0,1.599302888E0,9.832568813E0
1.995893821E0,-1.722832322E-1,9.688838005E0,1.618445396E0,9.824593065E0
1.998399863E0,-1.890329868E-1,9.696016312E0,1.625623941E0,9.833164241E0
2.000905853E0,-2.153540403E-1,9.696016312E0,1.649552107E0,9.837689354E0
2.003411894E0,-2.368894368E-1,9.710372925E0,1.663909078E0,9.854747707E0
2.005917884E0,-2.826521695E-1,9.710372925E0,1.699801445E0,9.862076837E0
2.008423925E0,-3.496512175E-1,9.710372925E0,1.745265007E0,9.872160263E0
2.010929967E0,-4.022932947E-1,9.703194618E0,1.776371717E0,9.872655275E0
2.013435957E0,-4.645066857E-1,9.703194618E0,1.802692771E0,9.880154527E0
2.015941998E0,-5.291129351E-1,9.705587387E0,1.812264085E0,9.887501613E0
2.018448040E0,-5.865406394E-1,9.700801849E0,1.826620936E0,9.888686995E0
2.020954030E0,-6.272186637E-1,9.676874161E0,1.845763564E0,9.871278535E0
2.023460071E0,-6.439684033E-1,9.657731056E0,1.886441588E0,9.861294353E0
2.025966061E0,-6.678966284E-1,9.631410599E0,1.922333837E0,9.844060311E0
2.028472103E0,-6.750751138E-1,9.583553314E0,1.934298038E0,9.800088236E0
2.030978144E0,-6.415755749E-1,9.545269012E0,1.922333837E0,9.758029879E0
2.033484134E0,-5.817549825E-1,9.504590988E0,1.896012783E0,9.709302405E0
2.035990175E0,-5.291129351E-1,9.473484039E0,1.876870275E0,9.672099171E0
2.038496165E0,-4.405784607E-1,9.428020477E0,1.860120535E0,9.619861117E0
2.041002207E0,-3.544368446E-1,9.408877373E0,1.836192250E0,9.592924521E0
2.043508248E0,-2.799602449E-1,9.428020477E0,1.802692771E0,9.602897952E0
2.046014238E0,-2.033899277E-1,9.439984322E0,1.776371717E0,9.607818063E0
2.048520280E0,-1.124626622E-1,9.473484039E0,1.716551185E0,9.628400473E0
2.051026269E0,-5.024927482E-2,9.495018959E0,1.647159338E0,9.636962380E0
2.053532311E0,5.264209956E-2,9.521340370E0,1.575374603E0,9.650932534E0
2.056038353E0,1.483550072E-1,9.526125908E0,1.520339727E0,9.647824465E0
2.058544342E0,2.703889608E-1,9.530911446E0,1.472483277E0,9.647776437E0
2.061050384E0,3.711866140E-1,9.514162064E0,1.415055513E0,9.625977425E0
2.063556373E0,5.027918816E-1,9.495018959E0,1.338186026E0,9.602027210E0
2.066062415E0,6.367899179E-1,9.483055115E0,1.268794179E0,9.588726421E0
2.068568457E0,7.301099896E-1,9.495018959E0,1.189831018E0,9.597090365E0
2.071074446E0,8.330013752E-1,9.506983757E0,1.139581800E0,9.611205862E0
2.073580488E0,9.194421172E-1,9.523733139E0,1.115653515E0,9.632837042E0
2.076086478E0,1.010369420E0,9.533304214E0,1.103689432E0,9.650018962E0
2.078592519E0,1.070189953E0,9.552447319E0,1.086939692E0,9.673468572E0
2.081098561E0,1.096511006E0,9.562018394E0,1.086939692E0,9.685864446E0
2.083604550E0,1.098903775E0,9.588339806E0,1.091725349E0,9.712657410E0
2.086110592E0,1.072582722E0,9.621838570E0,1.079761267E0,9.741462701E0
2.088616582E0,1.029511929E0,9.667302132E0,1.091725349E0,9.783071581E0
2.091122623E0,9.529415965E-1,9.703194618E0,1.110867858E0,9.812956276E0
2.093628665E0,8.835497499E-1,9.770194054E0,1.115653515E0,9.873299082E0
2.096134655E0,8.210372925E-1,9.808479309E0,1.122832060E0,9.906620030E0
2.098640696E0,7.731808424E-1,9.851848602E0,1.139581800E0,9.947631687E0
2.101146686E0,7.109674215E-1,9.892526627E0,1.139581800E0,9.983296270E0
2.103652728E0,6.822535396E-1,9.902098656E0,1.113260746E0,9.987811430E0
2.106158769E0,6.559324861E-1,9.899705887E0,1.094118118E0,9.981558923E0
2.108664759E0,6.559324861E-1,9.885348320E0,1.094118118E0,9.967319263E0
2.111170800E0,6.726822853E-1,9.849455833E0,1.103689432E0,9.933902155E0
2.113676790E0,6.870391965E-1,9.806086540E0,1.101296663E0,9.891623246E0
2.116182832E0,6.942176819E-1,9.743872643E0,1.106082320E0,9.830992339E0
2.118688873E0,6.774678826E-1,9.700801849E0,1.134796143E0,9.790417843E0
2.121194863E0,6.583253145E-1,9.660123825E0,1.161117196E0,9.751901234E0
2.123700905E0,6.224330068E-1,9.626625061E0,1.182652593E0,9.718950564E0
2.126206894E0,5.769693851E-1,9.609874725E0,1.182652593E0,9.699549116E0
2.128712936E0,5.267201066E-1,9.602696419E0,1.182652593E0,9.689575829E0
2.131218925E0,4.740779996E-1,9.585947037E0,1.201795220E0,9.672613002E0
2.133724967E0,4.190430641E-1,9.590732574E0,1.228116274E0,9.678120581E0
2.136231009E0,3.520440459E-1,9.624231339E0,1.254437327E0,9.712022286E0
2.138736998E0,2.994019389E-1,9.657731056E0,1.299900889E0,9.749418085E0
2.141243040E0,2.344966233E-1,9.672088623E0,1.366899967E0,9.771013382E0
2.143749030E0,1.459621787E-1,9.712766647E0,1.400399446E0,9.814288538E0
2.146255071E0,1.004985496E-1,9.746265411E0,1.415055513E0,9.848968044E0
2.148761113E0,5.264209956E-2,9.753444672E0,1.438983679E0,9.859164680E0
2.151267103E0,4.546362907E-2,9.765408516E0,1.467697620E0,9.875191478E0
2.153773144E0,8.374879509E-2,9.767801285E0,1.479661703E0,9.879592833E0
2.156279186E0,1.292124242E-1,9.751050949E0,1.503589988E0,9.867141091E0
2.158785175E0,1.938186288E-1,9.717552185E0,1.486840129E0,9.832552044E0
2.161291217E0,2.922234535E-1,9.672088623E0,1.477268934E0,9.788616674E0
2.163797207E0,3.927220106E-1,9.633803368E0,1.458126307E0,9.751437342E0
2.166303248E0,4.788636267E-1,9.597910881E0,1.427019596E0,9.715224577E0
2.168809290E0,5.602195859E-1,9.569196701E0,1.410269856E0,9.688768371E0
2.171315280E0,6.200401783E-1,9.559625626E0,1.400399446E0,9.681529349E0
2.173821321E0,6.774678826E-1,9.576375008E0,1.422233939E0,9.705084770E0
2.176327311E0,6.990033388E-1,9.581160545E0,1.455733418E0,9.716295737E0
2.178833353E0,7.037889361E-1,9.607481956E0,1.486840129E0,9.747293059E0
2.181339342E0,7.037889361E-1,9.643374443E0,1.532303810E0,9.789685617E0
2.183845384E0,6.439684033E-1,9.667302132E0,1.565803289E0,9.814436599E0
2.186351425E0,6.056832075E-1,9.667302132E0,1.584945917E0,9.815071890E0
2.188857415E0,5.697908998E-1,9.684052467E0,1.592124343E0,9.830584610E0
2.191363457E0,5.291129351E-1,9.712766647E0,1.565803289E0,9.852387344E0
2.193869498E0,4.908277392E-1,9.736694336E0,1.558624864E0,9.872863816E0
2.196375488E0,4.716851711E-1,9.760622978E0,1.544267893E0,9.893281111E0
2.198881530E0,4.645066857E-1,9.779765129E0,1.515554070E0,9.907395045E0
2.201387519E0,4.310071766E-1,9.779765129E0,1.532303810E0,9.908457404E0
2.203893561E0,4.142574072E-1,9.779765129E0,1.544267893E0,9.909600320E0
2.206399550E0,3.855435550E-1,9.770194054E0,1.553839207E0,9.900492511E0
2.208905592E0,3.855435550E-1,9.741479874E0,1.529910922E0,9.868419397E0
2.211411634E0,3.520440459E-1,9.736694336E0,1.513161182E0,9.859858435E0
2.213917623E0,3.448655605E-1,9.715159416E0,1.501197100E0,9.836505857E0
2.216423665E0,3.257229924E-1,9.684052467E0,1.489233017E0,9.803304679E0
2.218929655E0,3.185445070E-1,9.664909363E0,1.491625786E0,9.784523038E0
2.221435696E0,3.185445070E-1,9.648159981E0,1.510768414E0,9.770920265E0
2.223941738E0,3.017947674E-1,9.633803368E0,1.529910922E0,9.759194374E0
2.226447728E0,2.608176768E-1,9.631410599E0,1.551446438E0,9.759051287E0
2.228953769E0,2.344966233E-1,9.631410599E0,1.592124343E0,9.764933114E0
2.231459811E0,1.818545163E-1,9.626625061E0,1.625623941E0,9.764611325E0
2.233965800E0,1.603191197E-1,9.638588905E0,1.647159338E0,9.779633541E0
2.236471842E0,1.268195957E-1,9.667302132E0,1.673480392E0,9.811898406E0
2.238977832E0,7.896314561E-2,9.710372925E0,1.716551185E0,9.861243608E0
2.241483873E0,4.785645381E-2,9.715159416E0,1.778764486E0,9.876771528E0
2.243989915E0,4.067798331E-2,9.719944954E0,1.836192250E0,9.891945541E0
2.246495905E0,5.024927482E-2,9.707980156E0,1.879263043E0,9.888328134E0
2.249001946E0,7.657032460E-2,9.688838005E0,1.884048700E0,9.870617225E0
2.251507936E0,8.853443712E-2,9.660123825E0,1.891227245E0,9.843910359E0
2.254013978E0,9.332008660E-2,9.652945518E0,1.872084618E0,9.833248021E0
2.256520019E0,1.100698411E-1,9.636196136E0,1.876870275E0,9.817893531E0
2.259026009E0,1.363908947E-1,9.600303650E0,1.884048700E0,9.784378987E0
2.261532050E0,1.603191197E-1,9.583553314E0,1.898405671E0,9.771086963E0
2.264038040E0,1.722832322E-1,9.564411163E0,1.905584097E0,9.753916811E0
2.266544082E0,1.555334777E-1,9.550054550E0,1.936690807E0,9.745691554E0
2.269050123E0,1.435693651E-1,9.530911446E0,1.953440547E0,9.730098413E0
2.271556113E0,1.268195957E-1,9.523733139E0,1.948654890E0,9.721873893E0
2.274062155E0,1.196411327E-1,9.538089752E0,1.907976985E0,9.727787328E0
2.276568144E0,1.100698411E-1,9.540482521E0,1.852941990E0,9.719378381E0
2.279074186E0,6.939185411E-2,9.528518677E0,1.790728688E0,9.695575931E0
2.281580228E0,5.264209956E-2,9.530911446E0,1.752443433E0,9.690825670E0
2.284086217E0,3.110669367E-2,9.576375008E0,1.728515267E0,9.731171098E0
2.286592259E0,1.435693540E-2,9.609874725E0,1.714158297E0,9.761569393E0
2.289098248E0,1.196411345E-2,9.643374443E0,1.683051586E0,9.789150956E0
2.291604290E0,-7.178467698E-3,9.660123825E0,1.632802367E0,9.797146902E0
2.294110332E0,1.435693540E-2,9.667302132E0,1.556231976E0,9.791771780E0
2.296616321E0,2.871387079E-2,9.672088623E0,1.460519075E0,9.781780962E0
2.299122363E0,4.546362907E-2,9.679266930E0,1.393221021E0,9.779127775E0
2.301628353E0,5.982056633E-2,9.679266930E0,1.333400369E0,9.770861955E0
2.304134394E0,8.135596663E-2,9.672088623E0,1.283151150E0,9.757171414E0
2.306640384E0,1.244267747E-1,9.681659698E0,1.252044439E0,9.763074916E0
2.309146425E0,1.459621787E-1,9.700801849E0,1.204187989E0,9.776345442E0
2.311652467E0,1.866401732E-1,9.715159416E0,1.173081279E0,9.787506154E0
2.314158457E0,2.057827413E-1,9.734301567E0,1.134796143E0,9.802384191E0
2.316664498E0,2.321037948E-1,9.719944954E0,1.118046403E0,9.786788535E0
2.319170540E0,2.536391914E-1,9.715159416E0,1.103689432E0,9.780939918E0
2.321676530E0,2.946162820E-1,9.700801849E0,1.098903775E0,9.767289531E0
2.324182571E0,3.065803945E-1,9.698409081E0,1.098903775E0,9.765281345E0
2.326688561E0,3.496512175E-1,9.710372925E0,1.089332461E0,9.777537703E0
2.329194603E0,3.520440459E-1,9.736694336E0,1.089332461E0,9.803764421E0
2.331700592E0,3.472583890E-1,9.748658180E0,1.110867858E0,9.817889391E0
2.334206634E0,3.209373355E-1,9.767801285E0,1.130010486E0,9.838184101E0
2.336712675E0,2.946162820E-1,9.789336205E0,1.156331539E0,9.861795207E0
2.339218665E0,2.679961324E-1,9.796515465E0,1.189831018E0,9.872144399E0
2.341724707E0,2.153540403E-1,9.801301003E0,1.206580877E0,9.877637173E0
2.344230748E0,1.986042857E-1,9.786943436E0,1.237687469E0,9.866892912E0
2.346736738E0,1.627119333E-1,9.791728973E0,1.275972724E0,9.875856310E0
2.349242780E0,1.459621787E-1,9.786943436E0,1.319043517E0,9.876509635E0
2.351748769E0,1.196411327E-1,9.760622978E0,1.383649707E0,9.858933078E0
2.354254811E0,9.571290761E-2,9.719944954E0,1.477268934E0,9.832030023E0
2.356760853E0,6.699903309E-2,9.700801849E0,1.544267893E0,9.823177119E0
2.359266842E0,5.982056633E-2,9.669695854E0,1.596910000E0,9.800852920E0
2.361772884E0,3.349951655E-2,9.655338287E0,1.637588024E0,9.793282095E0
2.364278873E0,9.571290575E-3,9.612267494E0,1.687837243E0,9.759332587E0
2.366784915E0,-2.871387079E-2,9.559625626E0,1.745265007E0,9.717675470E0
2.369290905E0,-5.024927482E-2,9.559625626E0,1.817049742E0,9.730911409E0
2.371796946E0,-9.810572863E-2,9.540482521E0,1.891227245E0,9.726621817E0
2.374302988E0,-1.435693651E-1,9.521340370E0,1.992024899E0,9.728550653E0
2.376808978E0,-1.938186288E-1,9.511769295E0,2.078166485E0,9.738074590E0
2.379315019E0,-2.584248483E-1,9.518947601E0,2.161915302E0,9.764784924E0
2.381821061E0,-3.305086195E-1,9.511769295E0,2.240878344E0,9.777756737E0
2.384327050E0,-3.664009571E-1,9.516554832E0,2.300698996E0,9.797565076E0
2.386833092E0,-4.238287210E-1,9.514162064E0,2.322234392E0,9.802636540E0
2.389339082E0,-4.764707983E-1,9.518947601E0,2.350948334E0,9.816534313E0
2.391845123E0,-5.578267574E-1,9.502198219E0,2.353341103E0,9.805159664E0
2.394351165E0,-6.296114326E-1,9.506983757E0,2.365305185E0,9.817016824E0
2.396857155E0,-6.966105103E-1,9.506983757E0,2.358126640E0,9.819815050E0
2.399363196E0,-7.660023570E-1,9.506983757E0,2.334198475E0,9.819265873E0
2.401869186E0,-8.042874932E-1,9.487840652E0,2.300698996E0,9.795877423E0
2.404375228E0,-7.827520967E-1,9.475876808E0,2.255235434E0,9.771951135E0
2.406881269E0,-7.229315639E-1,9.423234940E0,2.193022013E0,9.702027227E0
2.409387259E0,-6.080760360E-1,9.377771378E0,2.145165443E0,9.639195363E0
2.411893300E0,-4.381856322E-1,9.320343018E0,2.066202402E0,9.556672694E0
2.414399290E0,-2.560320199E-1,9.282057762E0,1.987239242E0,9.495855333E0
2.416905332E0,-5.503492057E-2,9.267701149E0,1.888834357E0,9.458382983E0
2.419411373E0,1.483550072E-1,9.257830620E0,1.809871197E0,9.434249877E0
2.421917363E0,3.640081584E-1,9.274879456E0,1.769193292E0,9.449123544E0
2.424423405E0,5.841478109E-1,9.315557480E0,1.735693693E0,9.493864989E0
2.426929394E0,7.947162390E-1,9.358628273E0,1.711765528E0,9.547022482E0
2.429435436E0,9.792626500E-1,9.425627708E0,1.663909078E0,9.621330805E0
2.431941478E0,1.122832060E0,9.466305733E0,1.632802367E0,9.671491076E0
2.434447467E0,1.232901812E0,9.492626190E0,1.623231053E0,9.709010141E0
2.436953509E0,1.328614831E0,9.538089752E0,1.613659739E0,9.764439116E0
2.439459498E0,1.398006678E0,9.578767776E0,1.577767372E0,9.807984740E0
2.441965540E0,1.446162224E0,9.593125343E0,1.572981834E0,9.828209953E0
2.444471582E0,1.453340650E0,9.614660263E0,1.575374603E0,9.850669833E0
2.446977571E0,1.429412484E0,9.633803368E0,1.575374603E0,9.865859948E0
2.449483613E0,1.388435364E0,9.662516594E0,1.587338686E0,9.889975925E0
2.451989603E0,1.371685624E0,9.669695854E0,1.568196177E0,9.891601418E0
2.454495644E0,1.331007600E0,9.691230774E0,1.539482236E0,9.902602723E0
2.457001686E0,1.273579836E0,9.717552185E0,1.527518153E0,9.918978666E0
2.459507675E0,1.235294700E0,9.734301567E0,1.515554070E0,9.928720166E0
2.462013717E0,1.208973646E0,9.751050949E0,1.501197100E0,9.939728599E0
2.464519707E0,1.197009563E0,9.774979591E0,1.477268934E0,9.958181632E0
2.467025748E0,1.204187989E0,9.765408516E0,1.450947881E0,9.945779102E0
2.469531790E0,1.189831018E0,9.767801285E0,1.446162224E0,9.945703845E0
2.472037780E0,1.185045362E0,9.755837440E0,1.465304732E0,9.936187128E0
2.474543821E0,1.194616675E0,9.729516029E0,1.479661703E0,9.913626477E0
2.477049811E0,1.182652593E0,9.722337723E0,1.477268934E0,9.904788814E0
2.479555853E0,1.144367456E0,9.712766647E0,1.491625786E0,9.893046058E0
2.482061894E0,1.089332461E0,9.691230774E0,1.525125384E0,9.870795640E0
2.484567884E0,1.051047325E0,9.660123825E0,1.568196177E0,9.842861985E0
2.487073925E0,9.888339639E-1,9.650552750E0,1.639980793E0,9.838724408E0
2.489579915E0,9.218349457E-1,9.636196136E0,1.680658817E0,9.825002275E0
2.492085957E0,8.330013752E-1,9.617053032E0,1.742872238E0,9.809138797E0
2.494591998E0,7.348956466E-1,9.614660263E0,1.805085540E0,9.810203739E0
2.497097988E0,6.248258352E-1,9.595518112E0,1.881655931E0,9.798214338E0
2.499604030E0,5.195416212E-1,9.573982239E0,1.953440547E0,9.785039058E0
2.502110019E0,3.807578981E-1,9.576375008E0,1.999203324E0,9.790237423E0
2.504616061E0,2.344966233E-1,9.552447319E0,2.030309916E0,9.768643550E0
2.507122103E0,8.374879509E-2,9.538089752E0,2.068595171E0,9.760187291E0
2.509628092E0,-8.374879509E-2,9.516554832E0,2.114058733E0,9.748901172E0
2.512134134E0,-2.608176768E-1,9.499805450E0,2.173879385E0,9.748850242E0
2.514640123E0,-4.334000051E-1,9.468698502E0,2.240878344E0,9.739898492E0
2.517146165E0,-5.841478109E-1,9.454340935E0,2.276770830E0,9.742149485E0
2.519652207E0,-7.277171612E-1,9.418449402E0,2.300698996E0,9.722652790E0
2.522158196E0,-8.428717852E-1,9.382556915E0,2.307877541E0,9.698922923E0
2.524664238E0,-9.098708034E-1,9.358628273E0,2.329412937E0,9.686999157E0
2.527170228E0,-9.457631707E-1,9.337093353E0,2.355733871E0,9.676014796E0
2.529676269E0,-9.290133715E-1,9.341878891E0,2.370090723E0,9.682515019E0
2.532182311E0,-9.074779749E-1,9.349057198E0,2.367697954E0,9.686814769E0
2.534688300E0,-8.620143533E-1,9.375378609E0,2.374876499E0,9.709831677E0
2.537194342E0,-7.588238716E-1,9.408877373E0,2.370090723E0,9.732426065E0
2.539700332E0,-6.391827464E-1,9.435198784E0,2.362912416E0,9.747557938E0
2.542206373E0,-5.482555032E-1,9.466305733E0,2.348555326E0,9.768686731E0
2.544712415E0,-4.190430641E-1,9.495018959E0,2.315055847E0,9.782150362E0
2.547218405E0,-2.874378264E-1,9.502198219E0,2.283949137E0,9.777055547E0
2.549724446E0,-1.603191197E-1,9.514162064E0,2.233700037E0,9.774169931E0
2.552230436E0,-6.221338734E-2,9.516554832E0,2.161915302E0,9.759229691E0
2.554736478E0,2.632104978E-2,9.514162064E0,2.082952023E0,9.739541144E0
2.557242519E0,1.052841991E-1,9.495018959E0,1.992024899E0,9.702300397E0
2.559748509E0,1.698904037E-1,9.471091270E0,1.924726725E0,9.666178437E0
2.562254550E0,2.392822653E-1,9.439984322E0,1.864906192E0,9.625405711E0
2.564760540E0,3.089732230E-1,9.406484604E0,1.812264085E0,9.584451897E0
2.567266582E0,3.975076675E-1,9.361021042E0,1.750050664E0,9.531495403E0
2.569772623E0,5.003990531E-1,9.320343018E0,1.718943954E0,9.490730293E0
2.572278613E0,5.985047817E-1,9.286844254E0,1.661516190E0,9.453270345E0
2.574784655E0,6.990033388E-1,9.243474007E0,1.618445396E0,9.410089419E0
2.577290644E0,7.779664397E-1,9.248259544E0,1.577767372E0,9.414079151E0
2.579796686E0,8.524430394E-1,9.294022560E0,1.544267893E0,9.459930116E0
2.582302728E0,9.218349457E-1,9.325128555E0,1.515554070E0,9.492349887E0
2.584808717E0,9.888339639E-1,9.370592117E0,1.513161182E0,9.543345640E0
2.587314759E0,1.027119160E0,9.408877373E0,1.479661703E0,9.579736214E0
2.589820800E0,1.051047325E0,9.454340935E0,1.448554993E0,9.622243738E0
2.592326790E0,1.067797065E0,9.473484039E0,1.419841170E0,9.638622275E0
2.594832832E0,1.074975610E0,9.497411728E0,1.378864050E0,9.657000992E0
2.597338821E0,1.108475089E0,9.535696983E0,1.321436286E0,9.690429704E0
2.599844863E0,1.134796143E0,9.538089752E0,1.271187067E0,9.689109090E0
2.602350853E0,1.158724308E0,9.528518677E0,1.213759303E0,9.675149706E0
2.604856894E0,1.213759303E0,9.521340370E0,1.189831018E0,9.671857730E0
2.607362936E0,1.285543919E0,9.540482521E0,1.173081279E0,9.697914703E0
2.609868925E0,1.381256819E0,9.535696983E0,1.146760225E0,9.703218351E0
2.612374967E0,1.458126307E0,9.545269012E0,1.120439172E0,9.720785811E0
2.614881009E0,1.522732496E0,9.550054550E0,1.096511006E0,9.732655987E0
2.617386998E0,1.582553029E0,9.535696983E0,1.094118118E0,9.727851022E0
2.619893040E0,1.639980793E0,9.540482521E0,1.108475089E0,9.743667726E0
2.622399030E0,1.671087503E0,9.545269012E0,1.125224829E0,9.755553540E0
2.624905071E0,1.673480392E0,9.542876244E0,1.141974568E0,9.755569155E0
2.627411113E0,1.680658817E0,9.506983757E0,1.165902853E0,9.724540281E0
2.629917103E0,1.654337764E0,9.518947601E0,1.180259824E0,9.733458282E0
2.632423144E0,1.606481314E0,9.504590988E0,1.189831018E0,9.712555272E0
2.634929134E0,1.551446438E0,9.495018959E0,1.180259824E0,9.693058564E0
2.637435175E0,1.474876046E0,9.475876808E0,1.151545882E0,9.658859071E0
2.639941217E0,1.405484200E0,9.439984322E0,1.118046403E0,9.609303699E0
2.642447207E0,1.342971683E0,9.408877373E0,1.074975610E0,9.564837632E0
2.644953248E0,1.285543919E0,9.389735222E0,1.000798106E0,9.530023481E0
2.647459238E0,1.237687469E0,9.387342453E0,9.314061999E-1,9.514283268E0
2.649965280E0,1.225723386E0,9.361021042E0,8.955138922E-1,9.483304166E0
2.652471321E0,1.242473125E0,9.375378609E0,8.715856671E-1,9.497427288E0
2.654977311E0,1.287936807E0,9.380164146E0,8.931210637E-1,9.510201148E0
2.657483353E0,1.347757339E0,9.375378609E0,9.290133715E-1,9.517207560E0
2.659989342E0,1.429412484E0,9.377771378E0,9.816554785E-1,9.536742816E0
2.662495384E0,1.544267893E0,9.384949684E0,1.036690354E0,9.567485082E0
2.665001425E0,1.680658817E0,9.358628273E0,1.067797065E0,9.568109938E0
2.667507415E0,1.785943031E0,9.356235504E0,1.101296663E0,9.588617714E0
2.670013457E0,1.886441588E0,9.346664429E0,1.149153113E0,9.604131959E0
2.672519446E0,1.968096614E0,9.363413811E0,1.168295622E0,9.639078645E0
2.675025488E0,2.044667006E0,9.382556915E0,1.185045362E0,9.675606955E0
2.677531530E0,2.094916344E0,9.368199348E0,1.206580877E0,9.675105732E0
2.680037519E0,2.116451740E0,9.372985840E0,1.218544960E0,9.685921915E0
2.682543561E0,2.090130568E0,9.365806580E0,1.235294700E0,9.675377598E0
2.685049550E0,2.080559254E0,9.380164146E0,1.247258782E0,9.688749181E0
2.687555592E0,2.049452543E0,9.368199348E0,1.230509043E0,9.668379764E0
2.690061634E0,2.006381750E0,9.353842735E0,1.225723386E0,9.644808939E0
2.692567623E0,1.936690807E0,9.349057198E0,1.223330617E0,9.625600218E0
2.695073665E0,1.898405671E0,9.339486122E0,1.213759303E0,9.607453188E0
2.697579655E0,1.852941990E0,9.334700584E0,1.228116274E0,9.595743775E0
2.700085696E0,1.814656854E0,9.317950249E0,1.232901812E0,9.572733320E0
2.702591738E0,1.793121457E0,9.308379173E0,1.252044439E0,9.561842012E0
2.705097728E0,1.795514345E0,9.329915047E0,1.302293777E0,9.589950762E0
2.707603769E0,1.814656854E0,9.325128555E0,1.333400369E0,9.593172500E0
2.710109811E0,1.817049742E0,9.339486122E0,1.328614831E0,9.606918765E0
2.712615800E0,1.855334878E0,9.334700584E0,1.290329576E0,9.604366347E0
2.715121842E0,1.905584097E0,9.337093353E0,1.264008522E0,9.613026609E0
2.717627832E0,1.919941068E0,9.353842735E0,1.247258782E0,9.629963764E0
2.720133873E0,1.951047778E0,9.349057198E0,1.223330617E0,9.628499141E0
2.722639915E0,1.970489502E0,9.370592117E0,1.204187989E0,9.650953021E0
2.725145905E0,1.999203324E0,9.375378609E0,1.182652593E0,9.658840776E0
2.727651946E0,2.025524378E0,9.372985840E0,1.170688510E0,9.660544713E0
2.730157936E0,2.054238319E0,9.399306297E0,1.170688510E0,9.692129050E0
2.732663978E0,2.073380709E0,9.394520760E0,1.165902853E0,9.690988460E0
2.735169967E0,2.056631088E0,9.389735222E0,1.165902853E0,9.682777930E0
2.737676009E0,2.061416626E0,9.392127991E0,1.161117196E0,9.685540762E0
2.740182050E0,2.042274237E0,9.380164146E0,1.163509965E0,9.670166437E0
2.742688040E0,2.008774519E0,9.370592117E0,1.170688510E0,9.654723367E0
2.745194082E0,1.965703845E0,9.372985840E0,1.197009563E0,9.651408553E0
2.747700123E0,1.910369754E0,9.363413811E0,1.220937729E0,9.633987737E0
2.750206113E0,1.855334878E0,9.346664429E0,1.201795220E0,9.604515355E0
2.752712155E0,1.802692771E0,9.351449966E0,1.208973646E0,9.600048697E0
2.755218144E0,1.757229090E0,9.353842735E0,1.213759303E0,9.594552602E0
2.757724186E0,1.742872238E0,9.339486122E0,1.216152072E0,9.578237339E0
2.760230228E0,1.764407635E0,9.339486122E0,1.220937729E0,9.582787917E0
2.762736217E0,1.793121457E0,9.365806580E0,1.211366415E0,9.612545242E0
2.765242259E0,1.836192250E0,9.375378609E0,1.213759303E0,9.630292710E0
2.767748300E0,1.888834357E0,9.375378609E0,1.213759303E0,9.640468398E0
2.770254290E0,1.977667928E0,9.365806580E0,1.199402332E0,9.647179343E0
2.772760332E0,2.068595171E0,9.370592117E0,1.175474167E0,9.667927499E0
2.775266321E0,2.135594130E0,9.356235504E0,1.163509965E0,9.667143349E0
2.777772363E0,2.209771633E0,9.320343018E0,1.170688510E0,9.649994623E0
2.780278405E0,2.274377823E0,9.334700584E0,1.187438250E0,9.680880078E0
2.782784394E0,2.322234392E0,9.294022560E0,1.199402332E0,9.654542655E0
2.785290436E0,2.338984251E0,9.277272224E0,1.187438250E0,9.640987338E0
2.787796425E0,2.341377020E0,9.241081238E0,1.177866936E0,9.605571264E0
2.790302467E0,2.293520451E0,9.229117393E0,1.187438250E0,9.583676409E0
2.792808509E0,2.245664120E0,9.214759827E0,1.223330617E0,9.563019596E0
2.795314498E0,2.154736757E0,9.209974289E0,1.247258782E0,9.540554039E0
2.797820540E0,2.082952023E0,9.205188751E0,1.292722464E0,9.526033825E0
2.800326530E0,2.015953064E0,9.212367058E0,1.326221943E0,9.523163246E0
2.802832571E0,1.943869352E0,9.224330902E0,1.362114310E0,9.524823570E0
2.805338613E0,1.867298961E0,9.224330902E0,1.364507079E0,9.509835202E0
2.807844603E0,1.833799481E0,9.226723671E0,1.366899967E0,9.505980526E0
2.810350644E0,1.843370795E0,9.238688469E0,1.366899967E0,9.519443053E0
2.812856634E0,1.833799481E0,9.260522842E0,1.366899967E0,9.538790247E0
2.815362675E0,1.845763564E0,9.270093918E0,1.366899967E0,9.550387421E0
2.817868717E0,1.881655931E0,9.301200867E0,1.350150228E0,9.585190256E0
2.820374707E0,1.924726725E0,9.334700584E0,1.323829174E0,9.622563673E0
2.822880748E0,1.975275040E0,9.344271660E0,1.309472203E0,9.640116275E0
2.825386738E0,2.063809633E0,9.320343018E0,1.304686546E0,9.634848787E0
2.827892780E0,2.133201361E0,9.272486687E0,1.323829174E0,9.606356285E0
2.830398821E0,2.231307030E0,9.233902931E0,1.316650629E0,9.590477740E0
2.832904811E0,2.322234392E0,9.183652878E0,1.314257860E0,9.563447416E0
2.835410853E0,2.367697954E0,9.150154114E0,1.283151150E0,9.538227864E0
2.837916842E0,2.425125837E0,9.121439934E0,1.240080357E0,9.519438066E0
2.840422884E0,2.470589399E0,9.140582085E0,1.218544960E0,9.546669820E0
2.842928925E0,2.492124796E0,9.142974854E0,1.223330617E0,9.555166821E0
2.845434915E0,2.520838737E0,9.145368576E0,1.264008522E0,9.570272299E0
2.847940957E0,2.545065880E0,9.159725189E0,1.249651670E0,9.588511624E0
2.850446946E0,2.604886532E0,9.200403214E0,1.206580877E0,9.637877907E0
2.852952988E0,2.659921408E0,9.226723671E0,1.144367456E0,9.670428557E0
2.855459030E0,2.714956284E0,9.265308380E0,1.091725349E0,9.716418643E0
2.857965019E0,2.777169704E0,9.303593636E0,1.089332461E0,9.770167415E0
2.860471061E0,2.841775894E0,9.317950249E0,1.098903775E0,9.803442078E0
2.862977050E0,2.923131943E0,9.317950249E0,1.134796143E0,9.831411876E0
2.865483092E0,2.992523909E0,9.325128555E0,1.158724308E0,9.861838771E0
2.867989134E0,3.054737091E0,9.315557480E0,1.168295622E0,9.872990657E0
2.870495123E0,3.133999348E0,9.298808098E0,1.122832060E0,9.876767477E0
2.873001165E0,3.196212769E0,9.250652313E0,1.082154036E0,9.846898072E0
2.875507207E0,3.229712248E0,9.238688469E0,1.063011408E0,9.844511114E0
2.878013196E0,3.279961586E0,9.205188751E0,1.051047325E0,9.828445881E0
2.880519238E0,3.299104214E0,9.174081802E0,1.031904817E0,9.803708129E0
2.883025228E0,3.311068296E0,9.164510727E0,9.672985673E-1,9.792195701E0
2.885531269E0,3.306282759E0,9.150154114E0,8.907282352E-1,9.769862987E0
2.888037311E0,3.296711445E0,9.154939651E0,8.572286963E-1,9.768114834E0
2.890543300E0,3.289532900E0,9.166903496E0,8.644071817E-1,9.777542952E0
2.893049342E0,3.272783279E0,9.209974289E0,8.979067206E-1,9.815343768E0
2.895555332E0,3.272783279E0,9.250652313E0,9.481559992E-1,9.858228969E0
2.898061373E0,3.270390272E0,9.294022560E0,9.960124493E-1,9.902845484E0
2.900567415E0,3.277568817E0,9.329915047E0,1.043868899E0,9.943813876E0
2.903073405E0,3.299104214E0,9.351449966E0,1.098903775E0,9.977038368E0
2.905579446E0,3.327818155E0,9.375378609E0,1.153938770E0,1.001517211E1
2.908085436E0,3.358924866E0,9.394520760E0,1.170688510E0,1.004539238E1
2.910591478E0,3.421138287E0,9.392127991E0,1.168295622E0,1.006385463E1
2.913097519E0,3.452244759E0,9.361021042E0,1.153938770E0,1.004381817E1
2.915603509E0,3.478565931E0,9.334700584E0,1.127617717E0,1.002539663E1
2.918109550E0,3.495315790E0,9.298808098E0,1.070189953E0,9.991514953E0
2.920615592E0,3.531208038E0,9.270093918E0,1.036690354E0,9.973905872E0
2.923121582E0,3.562314749E0,9.233902931E0,1.005583763E0,9.948178146E0
2.925627623E0,3.600599766E0,9.224330902E0,9.840483069E-1,9.950927109E0
2.928133613E0,3.614956856E0,9.207581520E0,9.840483069E-1,9.940614749E0
2.930639655E0,3.605385542E0,9.214759827E0,1.024726272E0,9.947897642E0
2.933145644E0,3.591028690E0,9.219545364E0,1.072582722E0,9.952182548E0
2.935651686E0,3.586242914E0,9.241081238E0,1.115653515E0,9.975139270E0
2.938157728E0,3.579064369E0,9.257830620E0,1.120439172E0,9.988619198E0
2.940663717E0,3.564707518E0,9.286844254E0,1.096511006E0,1.000774461E1
2.943169759E0,3.574278831E0,9.286844254E0,1.046261668E0,1.000577877E1
2.945675748E0,3.605385542E0,9.322735786E0,9.816554785E-1,1.004369727E1
2.948181790E0,3.614956856E0,9.332307816E0,9.361918569E-1,1.005168331E1
2.950687832E0,3.646063566E0,9.356235504E0,8.955138922E-1,1.008141198E1
2.953193821E0,3.687040567E0,9.346664429E0,7.923234105E-1,1.007879856E1
2.955699863E0,3.715754509E0,9.351449966E0,6.894320250E-1,1.008621656E1
2.958205905E0,3.751646757E0,9.368199348E0,5.985047817E-1,1.010921463E1
2.960711894E0,3.782753468E0,9.358628273E0,5.410770178E-1,1.010870473E1
2.963217936E0,3.828217030E0,9.375378609E0,5.147559643E-1,1.013991831E1
2.965723925E0,3.830610037E0,9.370592117E0,5.099703074E-1,1.013615507E1
2.968229967E0,3.825824261E0,9.384949684E0,5.219344497E-1,1.014823272E1
2.970736009E0,3.828217030E0,9.372985840E0,5.267201066E-1,1.013832053E1
2.973241998E0,3.813860178E0,9.351449966E0,5.075774789E-1,1.011201171E1
2.975748040E0,3.809074640E0,9.353842735E0,4.812564552E-1,1.011113403E1
2.978254030E0,3.821038723E0,9.368199348E0,4.142574072E-1,1.012596194E1
2.980760071E0,3.821038723E0,9.396913528E0,3.640081584E-1,1.015060701E1
2.983266113E0,3.799503326E0,9.420842171E0,3.089732230E-1,1.016287150E1
2.985772103E0,3.785146236E0,9.439984322E0,2.826521695E-1,1.017450383E1
2.988278144E0,3.758825302E0,9.459127426E0,2.416750938E-1,1.018146680E1
2.990784186E0,3.742075443E0,9.480662346E0,2.440679073E-1,1.019537426E1
2.993290175E0,3.684647799E0,9.468698502E0,2.584248483E-1,1.016364423E1
2.995796217E0,3.612564087E0,9.463912964E0,2.679961324E-1,1.013351320E1
2.998302207E0,3.502494097E0,9.442377090E0,2.512463629E-1,1.007417861E1
3.000808248E0,3.373281717E0,9.437591553E0,2.464607358E-1,1.002536317E1
3.003314290E0,3.251247883E0,9.473484039E0,2.560320199E-1,1.001913494E1
3.005820280E0,3.117249727E0,9.540482521E0,2.416750938E-1,1.003974399E1
3.008326321E0,3.021237612E0,9.645767212E0,2.679961324E-1,1.011140563E1
3.010832311E0,2.947060108E0,9.777372360E0,3.472583890E-1,1.021776697E1
3.013338353E0,2.894418001E0,9.890133858E0,4.357928336E-1,1.031418047E1
3.015844394E0,2.815454960E0,9.947562218E0,5.027918816E-1,1.035053527E1
3.018350384E0,2.707777977E0,9.981060982E0,5.195416212E-1,1.035488114E1
3.020856425E0,2.552244425E0,9.957133293E0,4.597210586E-1,1.028930505E1
3.023362415E0,2.341377020E0,9.878170013E0,3.640081584E-1,1.015838526E1
3.025868457E0,2.104487419E0,9.794121742E0,2.321037948E-1,1.002035729E1
3.028374498E0,1.881655931E0,9.696016312E0,1.172483116E-1,9.877606417E0
3.030880488E0,1.668694735E0,9.612267494E0,5.024927482E-2,9.756164896E0
3.033386530E0,1.503589988E0,9.552447319E0,3.828516230E-2,9.670134352E0
3.035892519E0,1.386042476E0,9.521340370E0,4.067798331E-2,9.621782106E0
3.038398561E0,1.268794179E0,9.518947601E0,1.914258115E-2,9.603154094E0
3.040904603E0,1.168295622E0,9.509376526E0,7.178467698E-3,9.580877209E0
3.043410592E0,1.094118118E0,9.473484039E0,-9.571290575E-3,9.536460869E0
3.045916634E0,1.029511929E0,9.425627708E0,-1.435693540E-2,9.481695979E0
3.048422675E0,9.816554785E-1,9.365806580E0,-1.674975827E-2,9.417125937E0
3.050928665E0,9.816554785E-1,9.291629791E0,-4.785645381E-2,9.343464127E0
3.053434707E0,1.005583763E0,9.178867340E0,-1.052841991E-1,9.234386234E0
3.055940696E0,1.074975610E0,9.090332985E0,-1.698904037E-1,9.155249264E0
3.058446738E0,1.197009563E0,8.982656479E0,-2.129612118E-1,9.064562967E0
3.060952780E0,1.376471281E0,8.913264275E0,-2.033899277E-1,9.021215033E0
3.063458769E0,1.608874083E0,8.891729355E0,-1.627119333E-1,9.037577214E0
3.065964811E0,1.879263043E0,8.937192917E0,-1.459621787E-1,9.133802701E0
3.068470800E0,2.166700840E0,9.013762474E0,-1.339980662E-1,9.271486502E0
3.070976842E0,2.408375978E0,9.111868858E0,-1.555334777E-1,9.426060662E0
3.073482884E0,2.667099953E0,9.245866776E0,-1.986042857E-1,9.624911337E0
3.075988873E0,2.894418001E0,9.377771378E0,-2.536391914E-1,9.817565096E0
3.078494915E0,3.076272726E0,9.535696983E0,-3.400799036E-1,1.002539900E1
3.081000905E0,3.200998545E0,9.712766647E0,-4.334000051E-1,1.023582255E1
3.083506946E0,3.296711445E0,9.859027863E0,-5.147559643E-1,1.040834811E1
3.086012988E0,3.363710403E0,1.000259686E1,-5.769693851E-1,1.056879299E1
3.088518978E0,3.385245800E0,1.014616585E1,-6.200401783E-1,1.071396380E1
3.091025019E0,3.409173965E0,1.022991467E1,-6.391827464E-1,1.080195241E1
3.093531061E0,3.397209883E0,1.027537823E1,-6.894320250E-1,1.084434181E1
3.096037050E0,3.349353552E0,1.024905777E1,-7.995018363E-1,1.081205612E1
3.098543092E0,3.277568817E0,1.018684387E1,-9.242277741E-1,1.074097027E1
3.101049082E0,3.186641455E0,1.009113121E1,-1.031904817E0,1.063251807E1
3.103555123E0,3.088535786E0,9.969097137E0,-1.106082320E0,1.049501640E1
3.106061165E0,3.035594702E0,9.861420631E0,-1.156331539E0,1.038265644E1
3.108567155E0,3.004487991E0,9.782157898E0,-1.151545882E0,1.029774826E1
3.111073196E0,2.997309446E0,9.712766647E0,-1.108475089E0,1.022498982E1
3.113579186E0,3.030808926E0,9.660123825E0,-1.031904817E0,1.017686703E1
3.116085228E0,3.107678413E0,9.626625061E0,-9.601200819E-1,1.016126989E1
3.118591269E0,3.181855917E0,9.626625061E0,-9.194421172E-1,1.018044650E1
3.121097259E0,3.263211966E0,9.602696419E0,-8.668000102E-1,1.017898193E1
3.123603300E0,3.354139090E0,9.633803368E0,-7.971090674E-1,1.023209652E1
3.126109290E0,3.406781197E0,9.676874161E0,-7.492526174E-1,1.028637114E1
3.128615332E0,3.442673683E0,9.703194618E0,-7.205387354E-1,1.032100596E1
3.131121373E0,3.459423304E0,9.722337723E0,-7.229315639E-1,1.034476150E1
3.133627363E0,3.457030535E0,9.743872643E0,-7.301099896E-1,1.036470814E1
3.136133405E0,3.437887907E0,9.700801849E0,-7.683951855E-1,1.032061340E1
3.138639394E0,3.430709362E0,9.640981674E0,-7.516453862E-1,1.026076338E1
3.141145436E0,3.442673683E0,9.578767776E0,-7.157530785E-1,1.020377855E1
3.143651478E0,3.488137245E0,9.523733139E0,-6.846463680E-1,1.016549728E1
3.146157467E0,3.547957659E0,9.487840652E0,-6.224330068E-1,1.014862289E1
3.148663509E0,3.602992773E0,9.511769295E0,-5.434698462E-1,1.018580736E1
3.151169498E0,3.646063566E0,9.535696983E0,-4.836492836E-1,1.022043116E1
3.153675540E0,3.701397419E0,9.564411163E0,-3.735794425E-1,1.026244929E1
3.156181582E0,3.766003847E0,9.633803368E0,-2.368894368E-1,1.034645200E1
3.158687571E0,3.799503326E0,9.662516594E0,-1.100698411E-1,1.038328309E1
3.161193613E0,3.828217030E0,9.686445236E0,1.674975827E-2,1.041550515E1
3.163699603E0,3.811467409E0,9.681659698E0,7.896314561E-2,1.040519358E1
3.166205644E0,3.787539244E0,9.650552750E0,1.220339537E-1,1.036790790E1
3.168711686E0,3.746861219E0,9.624231339E0,1.363908947E-1,1.032876567E1
3.171217675E0,3.684647799E0,9.595518112E0,1.483550072E-1,1.027971821E1
3.173723717E0,3.651148319E0,9.609874725E0,1.962114573E-1,1.028197818E1
3.176229759E0,3.622135162E0,9.614660263E0,2.321037948E-1,1.027693667E1
3.178735748E0,3.600599766E0,9.602696419E0,2.775674164E-1,1.025929534E1
3.181241790E0,3.583850145E0,9.612267494E0,3.376871049E-1,1.026419509E1
3.183747780E0,3.567100286E0,9.602696419E0,3.711866140E-1,1.025054937E1
3.186253821E0,3.571886063E0,9.571589470E0,3.592225015E-1,1.022265796E1
3.188759863E0,3.583850145E0,9.528518677E0,3.568296731E-1,1.018646050E1
3.191265853E0,3.598206997E0,9.461520195E0,3.472583890E-1,1.012857573E1
3.193771894E0,3.571886063E0,9.363413811E0,3.400799036E-1,1.002733976E1
3.196277884E0,3.526422262E0,9.282057762E0,3.089732230E-1,9.934169050E0
3.198783925E0,3.471387386E0,9.190832138E0,2.368894368E-1,9.827412802E0
3.201289967E0,3.368496180E0,9.114261627E0,1.196411327E-1,9.717553474E0
3.203795957E0,3.244069338E0,9.040083885E0,-5.024927482E-2,9.604666965E0
3.206301998E0,3.105285645E0,8.982656479E0,-2.321037948E-1,9.507091486E0
3.208807988E0,2.923131943E0,8.982656479E0,-3.783650696E-1,9.453886920E0
3.211314030E0,2.724527597E0,8.994620323E0,-4.860421121E-1,9.410764173E0
3.213820071E0,2.568994284E0,9.042476654E0,-5.554339290E-1,9.416720370E0
3.216326061E0,2.415554523E0,9.083154678E0,-5.650052428E-1,9.415828880E0
3.218832103E0,2.262413740E0,9.131011009E0,-5.291129351E-1,9.421986971E0
3.221338092E0,2.111665964E0,9.193224907E0,-5.003990531E-1,9.445894163E0
3.223844134E0,1.992024899E0,9.212367058E0,-4.716851711E-1,9.437073535E0
3.226350175E0,1.888834357E0,9.224330902E0,-4.190430641E-1,9.425050287E0
3.228856165E0,1.802692771E0,9.238688469E0,-3.783650696E-1,9.420521534E0
3.231362207E0,1.709372640E0,9.241081238E0,-3.472583890E-1,9.404261037E0
3.233868248E0,1.654337764E0,9.233902931E0,-3.472583890E-1,9.387352405E0
3.236374238E0,1.628016710E0,9.255437851E0,-3.951148391E-1,9.405832444E0
3.238880280E0,1.606481314E0,9.282057762E0,-4.190430641E-1,9.429367720E0
3.241386269E0,1.601695657E0,9.339486122E0,-4.094717801E-1,9.484676966E0
3.243892311E0,1.563410521E0,9.401699066E0,-3.711866140E-1,9.538027956E0
3.246398353E0,1.563410521E0,9.478269577E0,-3.448655605E-1,9.612532387E0
3.248904342E0,1.572981834E0,9.559625626E0,-2.826521695E-1,9.692296230E0
3.251410384E0,1.592124343E0,9.626625061E0,-2.225325108E-1,9.759932925E0
3.253916373E0,1.611266971E0,9.703194618E0,-9.332008660E-2,9.836507291E0
3.256422415E0,1.639980793E0,9.753444672E0,8.614161611E-2,9.890735076E0
3.258928457E0,1.671087503E0,9.763015747E0,2.488535494E-1,9.908124848E0
3.261434446E0,1.690230131E0,9.731908798E0,2.775674164E-1,9.881496366E0
3.263940488E0,1.697408557E0,9.652945518E0,2.297109663E-1,9.803740109E0
3.266446478E0,1.726122379E0,9.547661781E0,1.674975902E-1,9.703885789E0
3.268952519E0,1.735693693E0,9.432806015E0,9.810572863E-2,9.591667563E0
3.271458561E0,1.788335800E0,9.344271660E0,3.589234129E-2,9.513929054E0
3.273964550E0,1.867298961E0,9.248259544E0,-9.571290575E-3,9.434892772E0
3.276470592E0,1.989632010E0,9.198010445E0,-2.392822644E-3,9.410740534E0
3.278976582E0,2.149951220E0,9.121439934E0,2.632104978E-2,9.371427293E0
3.281482623E0,2.372483730E0,9.078369141E0,4.785645381E-2,9.383376553E0
3.283988665E0,2.597707987E0,9.073583603E0,6.221338734E-2,9.438319590E0
3.286494655E0,2.827419043E0,9.040083885E0,6.221338734E-2,9.472132051E0
3.289000696E0,3.037987471E0,9.006584167E0,5.982056633E-2,9.505340853E0
3.291506738E0,3.229712248E0,8.985049248E0,4.546362907E-2,9.547995503E0
3.294012728E0,3.375674486E0,8.946763992E0,-1.674975827E-2,9.562428809E0
3.296518769E0,3.473780155E0,8.913264275E0,-5.742774159E-2,9.566437505E0
3.299024759E0,3.550350666E0,8.896514893E0,-7.896314561E-2,9.579102373E0
3.301530800E0,3.593421459E0,8.872586250E0,-6.460621208E-2,9.572859474E0
3.304036842E0,3.641277790E0,8.829515457E0,-2.392822644E-3,9.550877074E0
3.306542832E0,3.636492252E0,8.817551613E0,7.417750359E-2,9.538280487E0
3.309048873E0,3.610171080E0,8.776873589E0,1.028913707E-1,9.490913120E0
3.311554863E0,3.591028690E0,8.702695847E0,7.417750359E-2,9.414770542E0
3.314060905E0,3.579064369E0,8.652147293E0,5.264209956E-2,9.363339454E0
3.316566946E0,3.588635683E0,8.589934349E0,5.503492057E-2,9.309581464E0
3.319072936E0,3.588635683E0,8.561220169E0,8.853443712E-2,9.283352584E0
3.321578978E0,3.591028690E0,8.558827400E0,1.339980662E-1,9.282616496E0
3.324084967E0,3.576671600E0,8.542078018E0,1.603191197E-1,9.262039669E0
3.326591009E0,3.538386583E0,8.537292480E0,1.651047617E-1,9.242986644E0
3.329097050E0,3.461816072E0,8.558827400E0,2.201396823E-1,9.235050539E0
3.331603040E0,3.358924866E0,8.585148811E0,2.751746178E-1,9.222953835E0
3.334109082E0,3.212962627E0,8.633005142E0,2.826521695E-1,9.215844990E0
3.336615123E0,3.033201694E0,8.707481384E0,3.113660514E-1,9.225914231E0
3.339121113E0,2.851347208E0,8.748159409E0,3.640081584E-1,9.208310153E0
3.341627155E0,2.676671267E0,8.800801277E0,3.975076675E-1,9.207425511E0
3.344133144E0,2.499303341E0,8.843872070E0,3.951148391E-1,9.198733941E0
3.346639186E0,2.322234392E0,8.870193481E0,3.472583890E-1,9.175712145E0
3.349145228E0,2.171486616E0,8.898907661E0,2.584248483E-1,9.163661664E0
3.351651217E0,2.020738840E0,8.930013657E0,1.698904037E-1,9.157368187E0
3.354157259E0,1.922333837E0,9.011369705E0,1.196411327E-1,9.214904522E0
3.356663248E0,1.848156333E0,9.111868858E0,6.460621208E-2,9.297634639E0
3.359169290E0,1.805085540E0,9.224330902E0,3.349951655E-2,9.399347670E0
3.361675332E0,1.809871197E0,9.365806580E0,3.349951655E-2,9.539134597E0
3.364181321E0,1.836192250E0,9.506983757E0,8.135596663E-2,9.683024369E0
3.366687363E0,1.905584097E0,9.614660263E0,1.316052526E-1,9.802564086E0
3.369193353E0,2.001596212E0,9.715159416E0,2.009970993E-1,9.921245371E0
3.371699394E0,2.121237278E0,9.789336205E0,2.826521695E-1,1.002051112E1
3.374205436E0,2.240878344E0,9.837491989E0,4.214358926E-1,1.009828662E1
3.376711425E0,2.384447813E0,9.861420631E0,5.937191248E-1,1.016295777E1
3.379217467E0,2.537887573E0,9.863813400E0,7.540382147E-1,1.021294579E1
3.381723509E0,2.702992201E0,9.856635094E0,9.409775138E-1,1.026376446E1
3.384229498E0,2.860918522E0,9.849455833E0,1.060618639E0,1.031123401E1
3.386735540E0,3.009273529E0,9.844670296E0,1.158724308E0,1.035933890E1
3.389241530E0,3.155534744E0,9.854242325E0,1.285543919E0,1.042670199E1
3.391747571E0,3.277568817E0,9.885348320E0,1.450947881E0,1.051512332E1
3.394253561E0,3.332603693E0,9.928419113E0,1.580160260E0,1.059134835E1
3.396759603E0,3.373281717E0,9.945169449E0,1.642373681E0,1.062933752E1
3.399265644E0,3.354139090E0,9.990633011E0,1.649552107E0,1.066695923E1
3.401771634E0,3.303889751E0,1.002173901E1,1.618445396E0,1.067568760E1
3.404277675E0,3.177070379E0,1.006480980E1,1.608874083E0,1.067626565E1
3.406783717E0,2.999702215E0,1.011984539E1,1.572981834E0,1.067163324E1
3.409289707E0,2.793919563E0,1.017009449E1,1.544267893E0,1.065934200E1
3.411795748E0,2.568994284E0,1.019641590E1,1.539482236E0,1.062716493E1
3.414301738E0,2.300698996E0,1.020359421E1,1.539482236E0,1.057244325E1
3.416807780E0,2.001596212E0,1.019641590E1,1.541875124E0,1.050479241E1
3.419313821E0,1.663909078E0,1.016530895E1,1.505982757E0,1.041009527E1
3.421819811E0,1.347757339E0,1.011505985E1,1.482054472E0,1.031151643E1
3.424325853E0,9.984052777E-1,1.007677460E1,1.477268934E0,1.023330459E1
3.426831842E0,6.870391965E-1,1.003609657E1,1.458126307E0,1.016471296E1
3.429337884E0,4.573282301E-1,1.000020409E1,1.388435364E0,1.010648226E1
3.431843925E0,2.703889608E-1,9.981060982E0,1.254437327E0,1.006321527E1
3.434349915E0,1.052841991E-1,9.971489906E0,1.027119160E0,1.002480272E1
3.436855957E0,-1.196411345E-2,9.997811317E0,7.683951855E-1,1.002730300E1
3.439361946E0,-1.292124242E-1,1.002891827E1,4.764707983E-1,1.004106179E1
3.441867988E0,-2.297109663E-1,1.009830952E1,1.914258152E-1,1.010273557E1
3.444374030E0,-3.448655605E-1,1.020837975E1,9.571290575E-3,1.021420780E1
3.446880019E0,-4.334000051E-1,1.039292622E1,-2.392822644E-3,1.040195927E1
3.449386061E0,-5.243272781E-1,1.058674431E1,8.374879509E-2,1.060005132E1
3.451892103E0,-5.673980713E-1,1.079491997E1,1.459621787E-1,1.081080675E1
3.454398092E0,-6.152545214E-1,1.101057339E1,9.092725813E-2,1.102812460E1
3.456904134E0,-6.248258352E-1,1.121635628E1,-1.076770201E-1,1.123426232E1
3.459410123E0,-5.913262963E-1,1.140538883E1,-4.166502357E-1,1.142830515E1
3.461916165E0,-5.410770178E-1,1.165693474E1,-7.157530785E-1,1.169141541E1
3.464422207E0,-4.932205677E-1,1.193450165E1,-9.960124493E-1,1.198614354E1
3.466928196E0,-4.166502357E-1,1.228176022E1,-1.199402332E0,1.234721820E1
3.469434238E0,-3.711866140E-1,1.268644619E1,-1.311864972E0,1.275949396E1
3.471940228E0,-3.735794425E-1,1.315304661E1,-1.266401410E0,1.321915161E1
3.474446269E0,-4.453641176E-1,1.361755371E1,-1.043868899E0,1.366476420E1
3.476952311E0,-5.530411601E-1,1.404377556E1,-7.157530785E-1,1.407287422E1
3.479458300E0,-7.755736113E-1,1.442931843E1,-3.496512175E-1,1.445437652E1
3.481964342E0,-1.091725349E0,1.469252968E1,6.221338734E-2,1.473316541E1
3.484470384E0,-1.479661703E0,1.487946892E1,5.195416212E-1,1.496188215E1
3.486976373E0,-1.948654890E0,1.501107407E1,9.744769931E-1,1.516836200E1
3.489482415E0,-2.437089920E0,1.504218006E1,1.410269856E0,1.530344567E1
3.491988405E0,-2.920739174E0,1.502303791E1,1.797907114E0,1.540957025E1
3.494494446E0,-3.423531055E0,1.493211079E1,2.128415823E0,1.546669491E1
3.497000488E0,-3.911965847E0,1.483849144E1,2.317448616E0,1.551949977E1
3.499506478E0,-4.369294167E0,1.474277878E1,2.417947292E0,1.556556220E1
3.502012519E0,-4.759324074E0,1.465902996E1,2.499303341E0,1.561361080E1
3.504518561E0,-5.101797104E0,1.461595917E1,2.691028118E0,1.571293188E1
3.507024550E0,-5.413163185E0,1.459442329E1,2.980559587E0,1.584876217E1
3.509530592E0,-5.683551788E0,1.458006668E1,3.311068296E0,1.599513297E1
3.512036582E0,-5.930311680E0,1.455135250E1,3.670290947E0,1.613634072E1
3.514542623E0,-6.104988098E0,1.453938866E1,4.057928085E0,1.628285855E1
3.517048613E0,-6.224628925E0,1.453460312E1,4.481756687E0,1.643431885E1
3.519554655E0,-6.303592205E0,1.452981758E1,4.896014214E0,1.657775102E1
3.522060696E0,-6.313163280E0,1.450110340E1,5.207081318E0,1.665087764E1
3.524566686E0,-6.253343105E0,1.446281815E1,5.362913609E0,1.664446608E1
3.527072728E0,-6.174379826E0,1.438864040E1,5.444269657E0,1.657697231E1
3.529578769E0,-6.033203125E0,1.430220032E1,5.439484119E0,1.644811422E1
3.532084759E0,-5.889334679E0,1.421605873E1,5.293222904E0,1.627263954E1
3.534590800E0,-5.714658737E0,1.413709545E1,5.015655518E0,1.605215227E1
3.537096790E0,-5.518447399E0,1.411555958E1,4.565505505E0,1.582864885E1
3.539602832E0,-5.288437366E0,1.411795235E1,4.005286217E0,1.559892515E1
3.542108873E0,-5.018048286E0,1.423759365E1,3.406781197E0,1.547565959E1
3.544614863E0,-4.721039295E0,1.440778351E1,2.937488794E0,1.544348659E1
3.547120905E0,-4.371686935E0,1.463749409E1,2.731706142E0,1.551870156E1
3.549626946E0,-3.995714664E0,1.491057491E1,2.870489836E0,1.570129586E1
3.552132936E0,-3.622135162E0,1.517139244E1,3.270390272E0,1.593695279E1
3.554638978E0,-3.208176851E0,1.534846210E1,3.761218071E0,1.612496354E1
3.557144967E0,-2.810669184E0,1.540349674E1,4.108177185E0,1.618779457E1
3.559651009E0,-2.358126640E0,1.536042595E1,3.986143351E0,1.604346550E1
3.562157050E0,-1.857727647E0,1.523360634E1,3.263211966E0,1.568956553E1
3.564663040E0,-1.271187067E0,1.505653763E1,2.015953064E0,1.524399254E1
3.567169082E0,-6.798607111E-1,1.480499172E1,9.098708034E-1,1.484849674E1
3.569675123E0,7.178467698E-3,1.455374527E1,4.307080805E-2,1.455381077E1
3.572181113E0,7.109674215E-1,1.432882023E1,-2.560320199E-1,1.434873222E1
3.574687155E0,1.407876968E0,1.415623760E1,-1.603191197E-1,1.422697729E1
3.577193144E0,2.099701881E0,1.404138279E1,-8.853443712E-2,1.419778211E1
3.579699186E0,2.774776936E0,1.404138279E1,-2.105683982E-1,1.431447368E1
3.582205228E0,3.535993576E0,1.411316681E1,-4.190430641E-1,1.455542253E1
3.584711217E0,4.381258488E0,1.418734455E1,-3.520440459E-1,1.485261278E1
3.587217259E0,5.281258583E0,1.424237919E1,1.627119333E-1,1.519090295E1
3.589723248E0,6.179165363E0,1.424477196E1,8.401798606E-1,1.554996832E1
3.592229290E0,6.859025955E0,1.412513161E1,1.139581800E0,1.574370435E1
3.594735332E0,7.378567696E0,1.387388515E1,9.433703423E-1,1.574223295E1
3.597241321E0,7.931608677E0,1.353619766E1,6.056832075E-1,1.570050686E1
3.599747363E0,8.099106789E0,1.312433338E1,2.464607358E-1,1.542414991E1
3.602253353E0,8.118248940E0,1.267448235E1,8.614161611E-2,1.505177361E1
3.604759394E0,8.360222816E0,1.219801140E1,1.387837082E-1,1.478864661E1
3.607265436E0,8.604290962E0,1.172154045E1,2.632104978E-2,1.454059924E1
3.609771425E0,8.891729355E0,1.124985600E1,-1.076770201E-1,1.433993393E1
3.612277467E0,9.166903496E0,1.078056335E1,-3.017947674E-1,1.415428366E1
3.614783509E0,9.684052467E0,1.033759212E1,-4.214358926E-1,1.417124876E1
3.617289498E0,1.018445110E1,9.899705887E0,-5.123631358E-1,1.421230934E1
3.619795540E0,1.053649521E1,9.461520195E0,-6.798607111E-1,1.417745768E1
3.622301530E0,1.084038353E1,9.025727272E0,-7.875377536E-1,1.412791151E1
3.624807571E0,1.124746323E1,8.623434067E0,-1.000798106E0,1.420811884E1
3.627313613E0,1.174786186E1,8.274081230E0,-1.256830096E0,1.442401818E1
3.629819603E0,1.226261806E1,7.893323898E0,-1.247258782E0,1.463666692E1
3.632325644E0,1.280608749E1,7.500601768E0,-6.200401783E-1,1.485393394E1
3.634831686E0,1.329930782E1,7.034001350E0,2.874378264E-1,1.504763716E1
3.637337675E0,1.380927849E1,6.451947212E0,9.888339639E-1,1.527421316E1
3.639843717E0,1.426152229E1,5.774479389E0,1.058225870E0,1.542256374E1
3.642349707E0,1.464227962E1,4.922335148E0,5.315057039E-1,1.545665663E1
3.644855748E0,1.503739452E1,3.986143351E0,-2.536391914E-1,1.555882083E1
3.647361790E0,1.536281872E1,3.157927752E0,-9.026923180E-1,1.570998282E1
3.649867780E0,1.558804321E1,2.561815739E0,-1.299900889E0,1.585054363E1
3.652373821E0,1.560718536E1,2.341377020E0,-1.596910000E0,1.586242109E1
3.654879811E0,1.541785336E1,2.537887573E0,-1.931905150E0,1.574431113E1
3.657385853E0,1.514985752E1,3.021237612E0,-2.044667006E0,1.558289841E1
3.659891894E0,1.484566975E1,3.675076485E0,-1.805085540E0,1.539994906E1
3.662397884E0,1.458485222E1,4.414757729E0,-1.237687469E0,1.528855357E1
3.664903925E0,1.434796238E1,5.180759907E0,-6.439684033E-1,1.526823477E1
3.667409915E0,1.414427376E1,5.882156372E0,-2.799602449E-1,1.532118212E1
3.669915957E0,1.397438335E1,6.516852379E0,-1.866401732E-1,1.542036282E1
3.672421998E0,1.386192036E1,7.004988194E0,-3.448655605E-1,1.553517389E1
3.674927988E0,1.369651699E1,7.323532581E0,-6.535396576E-1,1.554528293E1
3.677434030E0,1.343091393E1,7.505387306E0,-9.936196208E-1,1.541776791E1
3.679940071E0,1.305494118E1,7.558029652E0,-1.268794179E0,1.513820135E1
3.682446061E0,1.253539944E1,7.505387306E0,-1.510768414E0,1.468841376E1
3.684952103E0,1.198953724E1,7.349853992E0,-1.778764486E0,1.417509647E1
3.687458092E0,1.146281719E1,7.120142937E0,-2.042274237E0,1.364783856E1
3.689964134E0,1.093848991E1,6.863811970E0,-2.360519648E0,1.312762467E1
3.692470175E0,1.043360424E1,6.591030121E0,-2.619243383E0,1.261595067E1
3.694976165E0,9.973882675E0,6.289235115E0,-2.793919563E0,1.211770607E1
3.697482207E0,9.526125908E0,5.982954025E0,-2.887239695E0,1.161374043E1
3.699988248E0,9.087940216E0,5.657230854E0,-2.889632463E0,1.108805186E1
3.702494238E0,8.659325600E0,5.348556995E0,-2.829811811E0,1.056403411E1
3.705000280E0,8.247760773E0,5.063511848E0,-2.777169704E0,1.006863355E1
3.707506269E0,7.900502205E0,4.783551693E0,-2.765205622E0,9.640885023E0
3.710012311E0,7.625327587E0,4.515256405E0,-2.793919563E0,9.291886124E0
3.712518353E0,7.380960464E0,4.259224415E0,-2.877668381E0,8.994473042E0
3.715024342E0,7.191927433E0,4.029214382E0,-2.949453115E0,8.755436164E0
3.717530384E0,7.050751209E0,3.828217030E0,-2.935096025E0,8.543016266E0
3.720036425E0,6.928418159E0,3.648755312E0,-2.868097067E0,8.339207055E0
3.722542415E0,6.844669342E0,3.512065411E0,-2.825026274E0,8.195417945E0
3.725048457E0,6.827919483E0,3.421138287E0,-2.851347208E0,8.151984577E0
3.727554446E0,6.856633186E0,3.356531858E0,-2.942274570E0,8.181485465E0
3.730060488E0,6.935596466E0,3.337389469E0,-3.085843801E0,8.292351824E0
3.732566530E0,7.081857681E0,3.370888948E0,-3.220141172E0,8.478496900E0
3.735072519E0,7.268497944E0,3.457030535E0,-3.299104214E0,8.698632714E0
3.737578561E0,7.462316513E0,3.552743435E0,-3.346960783E0,8.916854834E0
3.740084550E0,7.670791149E0,3.713361740E0,-3.361317635E0,9.161252562E0
3.742590592E0,7.859824181E0,3.830610037E0,-3.401995659E0,9.382109777E0
3.745096634E0,8.058428764E0,3.952643871E0,-3.454637766E0,9.617493947E0
3.747602623E0,8.269295692E0,4.077070713E0,-3.533600807E0,9.873707081E0
3.750108665E0,8.448758125E0,4.199104786E0,-3.571886063E0,1.008822903E1
3.752614707E0,8.580363274E0,4.311866283E0,-3.538386583E0,1.023401213E1
3.755120696E0,8.685647011E0,4.388436794E0,-3.488137245E0,1.033759851E1
3.757626738E0,8.752944946E0,4.469792843E0,-3.406781197E0,1.040188692E1
3.760132728E0,8.796015739E0,4.529613495E0,-3.349353552E0,1.044535593E1
3.762638769E0,8.829515457E0,4.551148891E0,-3.318246841E0,1.047301588E1
3.765144811E0,8.865407944E0,4.527220249E0,-3.275176048E0,1.047940644E1
3.767650800E0,8.901300430E0,4.500899315E0,-3.191427231E0,1.047265257E1
3.770156842E0,8.903693199E0,4.431507587E0,-3.112463951E0,1.042120165E1
3.772662884E0,8.930013657E0,4.321437836E0,-3.066701412E0,1.038386375E1
3.775168873E0,8.884550095E0,4.203890324E0,-3.014059305E0,1.028068469E1
3.777674915E0,8.843872070E0,4.084249020E0,-2.985345364E0,1.018859412E1
3.780180905E0,8.810373306E0,3.978965044E0,-2.968595505E0,1.011273454E1
3.782686946E0,8.791230202E0,3.861716747E0,-2.947060108E0,1.004409020E1
3.785192988E0,8.781659126E0,3.773182154E0,-2.920739174E0,9.994256245E0
3.787698978E0,8.784051895E0,3.682255030E0,-2.930310488E0,9.965203929E0
3.790205019E0,8.796015739E0,3.600599766E0,-2.937488794E0,9.948017490E0
3.792711061E0,8.815158844E0,3.535993576E0,-2.937488794E0,9.941786380E0
3.795217050E0,8.865407944E0,3.480958700E0,-2.877668381E0,9.949548070E0
3.797723092E0,8.879764557E0,3.437887907E0,-2.803490877E0,9.926170105E0
3.800229082E0,8.910871506E0,3.404388428E0,-2.726920605E0,9.921168658E0
3.802735123E0,8.939585686E0,3.387638569E0,-2.647957325E0,9.919877283E0
3.805241165E0,8.946763992E0,3.392424345E0,-2.597707987E0,9.914696952E0
3.807747155E0,8.939585686E0,3.390031576E0,-2.552244425E0,9.895577695E0
3.810253196E0,8.934800148E0,3.378067255E0,-2.482553482E0,9.869400380E0
3.812759186E0,8.939585686E0,3.349353552E0,-2.439482689E0,9.853194266E0
3.815265228E0,8.927620888E0,3.332603693E0,-2.394019127E0,9.825476562E0
3.817771269E0,8.884550095E0,3.313461065E0,-2.343769789E0,9.767676870E0
3.820277259E0,8.855836868E0,3.289532900E0,-2.358126640E0,9.736921207E0
3.822783300E0,8.817551613E0,3.299104214E0,-2.444268227E0,9.726651645E0
3.825289342E0,8.781659126E0,3.296711445E0,-2.513660192E0,9.711041701E0
3.827795332E0,8.731410027E0,3.287140131E0,-2.545065880E0,9.670582797E0
3.830301373E0,8.709874153E0,3.287140131E0,-2.578565598E0,9.660030981E0
3.832807415E0,8.717052460E0,3.291925669E0,-2.612065077E0,9.677120551E0
3.835313405E0,8.714659691E0,3.330210924E0,-2.624029160E0,9.691291315E0
3.837819446E0,8.692825317E0,3.356531858E0,-2.633600473E0,9.683355285E0
3.840325436E0,8.683254242E0,3.387638569E0,-2.633600473E0,9.685600175E0
3.842831478E0,8.680861473E0,3.442673683E0,-2.540280342E0,9.677932745E0
3.845337519E0,8.697610855E0,3.514458179E0,-2.494517565E0,9.706825885E0
3.847843509E0,8.712266922E0,3.583850145E0,-2.506481647E0,9.748334577E0
3.850349550E0,8.700303078E0,3.677469254E0,-2.504088879E0,9.771873662E0
3.852855540E0,8.671290398E0,3.749253988E0,-2.513660192E0,9.775820691E0
3.855361582E0,8.652147293E0,3.854538202E0,-2.504088879E0,9.797325076E0
3.857867623E0,8.621041298E0,3.947858334E0,-2.506481647E0,9.807669893E0
3.860373613E0,8.527720451E0,4.033999920E0,-2.496910334E0,9.758572266E0
3.862879655E0,8.429615021E0,4.103391647E0,-2.472982168E0,9.695972010E0
3.865385644E0,8.307580948E0,4.165605068E0,-2.420340061E0,9.603447964E0
3.867891686E0,8.195118904E0,4.237689018E0,-2.384447813E0,9.529090903E0
3.870397728E0,8.051250458E0,4.285545349E0,-2.372483730E0,9.424288404E0
3.872903717E0,7.914859295E0,4.347758770E0,-2.324627161E0,9.324800020E0
3.875409759E0,7.756932735E0,4.417150497E0,-2.238485575E0,9.202827916E0
3.877915800E0,7.620542049E0,4.469792843E0,-2.171486616E0,9.097640535E0
3.880421790E0,7.534101009E0,4.498506546E0,-2.142772675E0,9.032757824E0
3.882927832E0,7.479066372E0,4.541577339E0,-2.135594130E0,9.006837448E0
3.885433821E0,7.464709282E0,4.565505505E0,-2.133201361E0,9.006457307E0
3.887939863E0,7.438388348E0,4.565505505E0,-2.140379906E0,8.986361214E0
3.890445905E0,7.395317554E0,4.560719967E0,-2.152343988E0,8.951171599E0
3.892951894E0,7.290033340E0,4.536791801E0,-2.181057930E0,8.859124090E0
3.895457936E0,7.022037029E0,4.460221291E0,-2.197807550E0,8.604239422E0
3.897963978E0,6.799205780E0,4.441078663E0,-2.185843468E0,8.410130236E0
3.900469967E0,6.605386734E0,4.448257446E0,-2.269592285E0,8.280650781E0
3.902976009E0,6.418447495E0,4.457828522E0,-2.149951220E0,8.104998064E0
3.905481998E0,6.253343105E0,4.476971149E0,-2.157129526E0,7.987538949E0
3.907988040E0,6.109773636E0,4.505684853E0,-2.164308071E0,7.893969806E0
3.910494082E0,5.923133373E0,4.570291042E0,-1.984846354E0,7.740199236E0
3.913000071E0,5.812764645E0,4.687539577E0,-1.802692771E0,7.681859237E0
3.915506113E0,5.807978630E0,4.886443138E0,-1.726122379E0,7.783921941E0
3.918012103E0,5.690730572E0,5.044369221E0,-1.697408557E0,7.791743777E0
3.920518144E0,5.396413326E0,5.164010525E0,-1.584945917E0,7.635465608E0
3.923024186E0,5.085047245E0,5.286044121E0,-1.436590910E0,7.474206404E0
3.925530175E0,4.869693279E0,5.441876888E0,-1.354935765E0,7.427232838E0
3.928036217E0,4.666004181E0,5.635695457E0,-1.254437327E0,7.423359840E0
3.930542259E0,4.426722050E0,5.836692810E0,-1.125224829E0,7.411408907E0
3.933048248E0,4.203890324E0,6.035595894E0,-9.816554785E-1,7.420563262E0
3.935554290E0,4.134498596E0,6.313163280E0,-8.739784956E-1,7.596969637E0
3.938060280E0,3.964607954E0,6.521637917E0,-7.588238716E-1,7.669790806E0
3.940566321E0,3.610171080E0,6.681957245E0,-7.301099896E-1,7.629872112E0
3.943072363E0,3.229712248E0,6.789634228E0,-7.325028181E-1,7.554252745E0
3.945578353E0,2.956631422E0,6.933203697E0,-7.205387354E-1,7.571668174E0
3.948084394E0,2.674278498E0,7.060322285E0,-5.865406394E-1,7.572578568E0
3.950590436E0,2.374876499E0,7.179963589E0,-4.980062246E-1,7.578913228E0
3.953096425E0,2.073380709E0,7.261319637E0,-4.860421121E-1,7.567159796E0
3.955602467E0,1.742872238E0,7.366603374E0,-4.788636267E-1,7.585101139E0
3.958108509E0,1.417448282E0,7.491030216E0,-3.999004960E-1,7.634436046E0
3.960614498E0,1.156331539E0,7.620542049E0,-2.488535494E-1,7.711789147E0
3.963120540E0,8.548358679E-1,7.699504852E0,-1.914258115E-2,7.746837146E0
3.965626530E0,5.123631358E-1,7.747361660E0,3.305086195E-1,7.771316788E0
3.968132571E0,2.751746178E-1,7.862216949E0,8.476574421E-1,7.912565928E0
3.970638613E0,3.828516230E-2,7.957930088E0,1.498804331E0,8.097933777E0
3.973144603E0,-1.986042857E-1,8.032107353E0,2.135594130E0,8.313540430E0
3.975650644E0,-4.597210586E-1,8.072785378E0,2.714956284E0,8.529489717E0
3.978158613E0,-7.277171612E-1,8.154440880E0,3.792324781E0,9.022538755E0
3.980690436E0,-7.636095285E-1,8.190332413E0,4.268795490E0,9.267537941E0
3.983245332E0,-8.042874932E-1,8.144868851E0,4.599005222E0,9.388110353E0
3.985801425E0,-8.715856671E-1,8.032107353E0,4.800301552E0,9.397728720E0
3.988357571E0,-9.601200819E-1,7.881359577E0,4.929513931E0,9.345467723E0
3.990913717E0,-1.058225870E0,7.725826263E0,4.984548569E0,9.254942349E0
3.993469863E0,-1.141974568E0,7.574779034E0,4.998905659E0,9.147154809E0
3.996026009E0,-1.266401410E0,7.407281399E0,4.934299469E0,8.989933342E0
3.998582155E0,-1.436590910E0,7.347461224E0,4.876871586E0,8.934923410E0
4.001138300E0,-1.706979871E0,7.455138206E0,4.886443138E0,9.075802582E0
4.003694446E0,-1.975275040E0,7.464709282E0,4.838586330E0,9.112382445E0
4.006250592E0,-2.255235434E0,7.194320202E0,4.735395908E0,8.903274928E0
4.008806738E0,-2.578565598E0,6.815955162E0,4.764110088E0,8.706491271E0
4.011362884E0,-3.028416157E0,6.684350014E0,4.881657124E0,8.813762863E0
4.013919030E0,-3.626920938E0,6.770491600E0,4.989334106E0,9.159015604E0
4.016475175E0,-4.201497555E0,6.878168583E0,4.989334106E0,9.479200366E0
4.019031321E0,-4.768895626E0,6.818347931E0,5.008476734E0,9.711697750E0
4.021587467E0,-5.226223946E0,6.428019047E0,4.996512890E0,9.674605245E0
4.024143613E0,-5.561518192E0,6.126523495E0,4.876871586E0,9.604616140E0
4.026699759E0,-5.925526142E0,6.528816700E0,4.649254322E0,9.967591149E0
4.029255905E0,-6.296413898E0,7.237390995E0,4.335794449E0,1.052728692E1
4.031812050E0,-6.466603279E0,7.773682594E0,3.856930971E0,1.082233873E1
4.034368196E0,-6.423233509E0,8.101499557E0,3.528815269E0,1.092450278E1
4.036924342E0,-6.224628925E0,8.348258972E0,3.385245800E0,1.094985490E1
4.039480488E0,-6.088238239E0,8.460721970E0,3.248854876E0,1.091812800E1
4.042036634E0,-5.874977589E0,8.467900276E0,2.860918522E0,1.069605308E1
4.044592780E0,-5.587839127E0,8.522934914E0,2.386840582E0,1.046715690E1
4.047148925E0,-5.290830135E0,8.733802795E0,2.042274237E0,1.041360067E1
4.049705071E0,-4.948656559E0,8.994620323E0,1.819442511E0,1.042606194E1
4.052261217E0,-4.515256405E0,9.245866776E0,1.893620014E0,1.046228415E1
4.054817363E0,-4.146462440E0,9.626625061E0,2.408375978E0,1.075478199E1
4.057373509E0,-3.849752426E0,1.018205833E1,3.205784082E0,1.134777323E1
4.059929655E0,-3.734897137E0,1.085713387E1,4.225724697E0,1.223452335E1
4.062485800E0,-3.825824261E0,1.161864948E1,5.209474087E0,1.329543408E1
4.065041946E0,-4.043570995E0,1.234875965E1,5.640480995E0,1.416535764E1
4.067598092E0,-4.194318771E0,1.313390446E1,5.307579517E0,1.477369813E1
4.070154238E0,-4.081856251E0,1.407727432E1,4.345366001E0,1.528768813E1
4.072710384E0,-3.622135162E0,1.524317741E1,3.303889751E0,1.601218312E1
4.075266530E0,-2.937488794E0,1.664387703E1,2.944667339E0,1.715571475E1
4.077822675E0,-2.111665964E0,1.819023705E1,3.648755312E0,1.867236654E1
4.080378821E0,-1.299900889E0,1.976321983E1,5.175974369E0,2.047108476E1
4.082934967E0,-5.291129351E-1,2.118306160E1,6.832705021E0,2.226404988E1
4.085491113E0,2.560320199E-1,2.226760674E1,7.550850868E0,2.351440433E1
4.088047259E0,1.074975610E0,2.268156624E1,6.571887493E0,2.363892394E1
4.090603405E0,1.654337764E0,2.209263229E1,4.093820572E0,2.252954953E1
4.093159550E0,1.867298961E0,2.057259178E1,7.660023570E-1,2.067135936E1
4.095715696E0,1.589731574E0,1.847049713E1,-2.429911375E0,1.869735222E1
4.098271842E0,1.017547846E0,1.621765518E1,-4.740181446E0,1.692681492E1
4.100827988E0,3.281157911E-1,1.408206081E1,-5.726622581E0,1.520546951E1
4.103384134E0,-1.914258152E-1,1.214776230E1,-5.374877930E0,1.328510766E1
4.105938873E0,-3.257229924E-1,1.048146057E1,-4.105784416E0,1.126164184E1
4.108468561E0,1.555334777E-1,9.131011009E0,-2.597707987E0,9.494611077E0
4.110974550E0,1.118046403E0,8.091927528E0,-1.319043517E0,8.274611452E0
4.113480592E0,2.307877541E0,7.313961506E0,-6.248258352E-1,7.694851459E0
4.115986634E0,3.595814228E0,6.672386169E0,-6.798607111E-1,7.610047815E0
4.118492623E0,4.905585289E0,5.999703884E0,-1.259222865E0,7.851551181E0
4.120998665E0,6.171987057E0,5.242973328E0,-1.927119493E0,8.324420886E0
4.123504655E0,7.292426109E0,4.402793884E0,-2.240878344E0,8.808269313E0
4.126010696E0,8.307580948E0,3.569493294E0,-1.960619092E0,9.252092239E0
4.128516738E0,9.138189316E0,2.896811008E0,-1.036690354E0,9.642237545E0
4.131022728E0,9.755837440E0,2.571387053E0,4.094717801E-1,1.009732948E1
4.133528769E0,1.007677460E1,2.686242580E0,1.611266971E0,1.055241521E1
4.136034811E0,1.003609657E1,3.260818958E0,1.704586983E0,1.068933073E1
4.138540800E0,9.789336205E0,4.103391647E0,5.386841893E-1,1.062822219E1
4.141046842E0,9.530911446E0,4.953442097E0,-1.465304732E0,1.084075549E1
4.143552884E0,9.382556915E0,5.659623623E0,-3.531208038E0,1.151230403E1
4.146058873E0,9.392127991E0,6.241378784E0,-4.697110653E0,1.221596193E1
4.148564915E0,9.609874725E0,6.892525673E0,-4.467400074E0,1.264176672E1
4.151070905E0,1.000738239E1,7.730611801E0,-3.150749207E0,1.303216336E1
4.153576946E0,1.054128075E1,8.726624489E0,-1.520339727E0,1.376895085E1
4.156082988E0,1.119003487E1,9.760622978E0,-1.962114573E-1,1.485008889E1
4.158588978E0,1.185075283E1,1.071834946E1,5.913262963E-1,1.598977875E1
4.161095019E0,1.248036480E1,1.146760273E1,9.457631707E-1,1.697527278E1
4.163601061E0,1.304297733E1,1.198953724E1,9.266205430E-1,1.774054358E1
4.166107050E0,1.345244884E1,1.223390388E1,5.434698462E-1,1.819154044E1
4.168613092E0,1.369651699E1,1.221954727E1,-6.939185411E-2,1.835529156E1
4.171119082E0,1.373719501E1,1.202303600E1,-6.487540603E-1,1.826704145E1
4.173625123E0,1.359841156E1,1.176221848E1,-1.065404296E0,1.801115395E1
4.176131165E0,1.325862980E1,1.145324516E1,-1.335793257E0,1.757135261E1
4.178637155E0,1.274148178E1,1.115414238E1,-1.575374603E0,1.700711778E1
4.181143196E0,1.199432278E1,1.085234833E1,-1.840977907E0,1.627963276E1
4.183649186E0,1.101775169E1,1.058195877E1,-2.090130568E0,1.541873372E1
4.186155228E0,9.830313683E0,1.030409241E1,-2.231307030E0,1.441485756E1
4.188661269E0,8.446364403E0,1.006720352E1,-2.382055044E0,1.335529276E1
4.191167259E0,6.878168583E0,9.827920914E0,-2.633600473E0,1.228141213E1
4.193673300E0,5.235795021E0,9.593125343E0,-2.956631422E0,1.132180519E1
4.196179342E0,3.562314749E0,9.361021042E0,-3.267997503E0,1.053558774E1
4.198685332E0,1.946262121E0,9.121439934E0,-3.411566973E0,9.931132459E0
4.201191373E0,4.692923427E-1,8.925228119E0,-3.358924866E0,9.547895503E0
4.203697363E0,-8.042874932E-1,8.757730484E0,-3.303889751E0,9.394701118E0
4.206203405E0,-1.852941990E0,8.597112656E0,-3.442673683E0,9.444349746E0
4.208709446E0,-2.655135870E0,8.475078583E0,-3.907180309E0,9.702719281E0
4.211215436E0,-3.232105255E0,8.434400558E0,-4.685146809E0,1.017527483E1
4.213721478E0,-3.586242914E0,8.475078583E0,-5.566303730E0,1.075508403E1
4.216227519E0,-3.773182154E0,8.597112656E0,-6.188736439E0,1.124489699E1
4.218733509E0,-3.766003847E0,8.772088051E0,-6.380162239E0,1.148210712E1
