"Time (s)","Acceleration x (m/s^2)","Acceleration y (m/s^2)","Acceleration z (m/s^2)","Absolute acceleration (m/s^2)"
3.408036000E-3,8.572286963E-1,6.930810928E0,6.911668301E0,9.825585981E0
5.943141000E-3,8.691928387E-1,6.949953556E0,6.976274490E0,9.885633838E0
8.501318000E-3,8.907282352E-1,6.954739094E0,7.024429798E0,9.924938621E0
1.105756800E-2,8.811569214E-1,6.961917400E0,7.048357964E0,9.946058586E0
1.361376600E-2,8.524430394E-1,6.966702938E0,7.081857681E0,9.970672855E0
1.616996400E-2,8.401798606E-1,6.964310169E0,7.098607540E0,9.979867100E0
1.872616100E-2,8.162516356E-1,6.961917400E0,7.105785847E0,9.981320209E0
2.128235900E-2,7.923234105E-1,6.969096184E0,7.098607540E0,9.979293914E0
2.383855700E-2,7.731808424E-1,6.985845566E0,7.091429234E0,9.984398603E0
2.639475500E-2,7.516453862E-1,6.988238335E0,7.089035988E0,9.982728938E0
2.895095300E-2,7.348956466E-1,6.988238335E0,7.067500591E0,9.966198435E0
3.150715100E-2,7.013961077E-1,6.995417118E0,7.060322285E0,9.963732630E0
3.406334900E-2,6.798607111E-1,6.995417118E0,7.060322285E0,9.962239809E0
3.661954700E-2,6.367899179E-1,6.993024349E0,7.043572426E0,9.945843527E0
3.917574500E-2,6.008976102E-1,7.004988194E0,7.067500591E0,9.968976985E0
4.173194300E-2,5.889334679E-1,7.012166977E0,7.086643219E0,9.986883421E0
4.428814100E-2,5.626124144E-1,7.034001350E0,7.091429234E0,1.000410297E1
4.684433900E-2,5.458626747E-1,7.026822567E0,7.122535706E0,1.002021538E1
4.940053600E-2,5.338985324E-1,7.009773731E0,7.148856640E0,1.002637156E1
5.195673400E-2,5.315057039E-1,7.000202656E0,7.179963589E0,1.004177338E1
5.451293200E-2,5.243272781E-1,7.000202656E0,7.189534664E0,1.004824189E1
5.706913000E-2,5.147559643E-1,6.993024349E0,7.191927433E0,1.004446034E1
5.962532800E-2,5.243272781E-1,6.976274490E0,7.167999268E0,1.001616385E1
6.218152600E-2,5.315057039E-1,6.959524632E0,7.151249409E0,9.992889948E0
6.473772400E-2,5.315057039E-1,6.954739094E0,7.105785847E0,9.957062151E0
6.729392200E-2,5.147559643E-1,6.947560310E0,7.084250450E0,9.935802555E0
6.985012000E-2,5.099703074E-1,6.935596466E0,7.072286606E0,9.918659480E0
7.240631800E-2,4.836492836E-1,6.928418159E0,7.057929516E0,9.902083815E0
7.496251600E-2,4.573282301E-1,6.947560310E0,7.031608582E0,9.895517299E0
7.751871400E-2,4.429712892E-1,6.964310169E0,6.997809887E0,9.882670839E0
8.007491100E-2,4.501497746E-1,6.966702938E0,6.971488953E0,9.866065217E0
8.263110900E-2,3.999004960E-1,6.969096184E0,6.933203697E0,9.838573857E0
8.518730700E-2,3.975076675E-1,6.971488953E0,6.911668301E0,9.825010395E0
8.774350500E-2,3.879363835E-1,6.964310169E0,6.875775814E0,9.794304662E0
9.029970300E-2,3.807578981E-1,6.966702938E0,6.844669342E0,9.773915531E0
9.285590100E-2,3.759722710E-1,6.942774773E0,6.806384087E0,9.729868500E0
9.541209900E-2,3.951148391E-1,6.923632145E0,6.775277138E0,9.695214186E0
9.796829700E-2,4.214358926E-1,6.899703979E0,6.751348972E0,9.662517072E0
1.005244950E-1,4.501497746E-1,6.892525673E0,6.710670948E0,9.630298518E0
1.030806930E-1,4.860421121E-1,6.902096748E0,6.691528320E0,9.625576747E0
1.056368910E-1,5.123631358E-1,6.916453838E0,6.684350014E0,9.632257512E0
1.081930890E-1,5.913262963E-1,6.914061069E0,6.665207386E0,9.621792804E0
1.107492860E-1,6.463612318E-1,6.916453838E0,6.646064758E0,9.613807431E0
1.133054840E-1,7.013961077E-1,6.906882763E0,6.638886452E0,9.605821116E0
1.158616820E-1,7.372884750E-1,6.904489517E0,6.646064758E0,9.611750442E0
1.184178800E-1,7.827520967E-1,6.933203697E0,6.655636311E0,9.642588296E0
1.209740780E-1,8.353942037E-1,6.937989235E0,6.689135551E0,9.673578062E0
1.235302760E-1,8.644071817E-1,6.949953556E0,6.715456963E0,9.702907627E0
1.260864740E-1,8.787640929E-1,6.952346325E0,6.751348972E0,9.730778936E0
1.286426720E-1,8.955138922E-1,6.949953556E0,6.787241459E0,9.755534131E0
1.311988700E-1,8.859425783E-1,6.964310169E0,6.823133945E0,9.789875751E0
1.337550680E-1,8.883354068E-1,6.957131863E0,6.861418724E0,9.811722094E0
1.363112660E-1,8.859425783E-1,6.959524632E0,6.906882763E0,9.845044787E0
1.388674640E-1,8.715856671E-1,6.957131863E0,6.945167542E0,9.868976518E0
1.414236610E-1,8.572286963E-1,6.947560310E0,6.954739094E0,9.867716614E0
1.439798590E-1,8.548358679E-1,6.954739094E0,6.959524632E0,9.875936579E0
1.465360570E-1,8.835497499E-1,6.949953556E0,6.966702938E0,9.880155081E0
1.490922550E-1,8.883354068E-1,6.969096184E0,6.997809887E0,9.915986316E0
1.516484530E-1,8.811569214E-1,6.983452797E0,7.026822567E0,9.945918051E0
1.542046510E-1,8.859425783E-1,6.997809887E0,7.062715054E0,9.981792494E0
1.567608490E-1,8.572286963E-1,6.976274490E0,7.098607540E0,9.989668454E0
1.593170470E-1,8.377870321E-1,6.983452797E0,7.139285564E0,1.002197079E1
1.618732450E-1,8.162516356E-1,6.995417118E0,7.158428192E0,1.004217215E1
1.644294430E-1,7.851449251E-1,6.988238335E0,7.191927433E0,1.005861560E1
1.669856410E-1,7.420741320E-1,7.000202656E0,7.220641613E0,1.008420431E1
1.695418390E-1,7.205387354E-1,7.026822567E0,7.225427151E0,1.010456377E1
1.720980360E-1,6.918248534E-1,7.043572426E0,7.239784241E0,1.012447579E1
1.746542340E-1,6.774678826E-1,7.060322285E0,7.242177010E0,1.013687532E1
1.772104320E-1,6.774678826E-1,7.074679375E0,7.232605457E0,1.014005092E1
1.797666300E-1,6.798607111E-1,7.079464912E0,7.246962547E0,1.015379240E1
1.823228280E-1,6.559324861E-1,7.093822002E0,7.254140854E0,1.016735548E1
1.848790260E-1,6.296114326E-1,7.101000309E0,7.268497944E0,1.018094683E1
1.874352240E-1,6.176473498E-1,7.093822002E0,7.294818878E0,1.019402675E1
1.899914220E-1,5.937191248E-1,7.086643219E0,7.292426109E0,1.018589677E1
1.925476200E-1,5.578267574E-1,7.072286606E0,7.292426109E0,1.017388260E1
1.951038180E-1,5.219344497E-1,7.077072144E0,7.263712406E0,1.015474685E1
1.976600160E-1,5.003990531E-1,7.081857681E0,7.218248844E0,1.012453573E1
2.002162140E-1,4.860421121E-1,7.072286606E0,7.179963589E0,1.008986382E1
2.027724110E-1,4.645066857E-1,7.065107822E0,7.144071102E0,1.005829344E1
2.053286090E-1,4.549354017E-1,7.055536747E0,7.101000309E0,1.002056737E1
2.078848070E-1,4.334000051E-1,7.036394119E0,7.072286606E0,9.985785678E0
2.104410050E-1,4.310071766E-1,7.036394119E0,7.041179657E0,9.963675042E0
2.129972030E-1,4.238287210E-1,7.017251492E0,7.012166977E0,9.929347158E0
2.155534010E-1,4.334000051E-1,7.012166977E0,6.981060028E0,9.904217303E0
2.181095990E-1,4.022932947E-1,6.997809887E0,6.945167542E0,9.867448266E0
2.206657970E-1,4.070789516E-1,6.983452797E0,6.911668301E0,9.833894698E0
2.232219950E-1,4.166502357E-1,6.985845566E0,6.866204739E0,9.804101346E0
2.257781930E-1,4.046861231E-1,7.000202656E0,6.861418724E0,9.810488010E0
2.283343910E-1,4.070789516E-1,6.985845566E0,6.837490559E0,9.783610207E0
2.308905890E-1,4.310071766E-1,6.988238335E0,6.825526714E0,9.777988399E0
2.334467860E-1,4.405784607E-1,7.002595425E0,6.806384087E0,9.775342265E0
2.360029840E-1,4.501497746E-1,6.990631580E0,6.787241459E0,9.753881860E0
2.385591820E-1,4.788636267E-1,6.983452797E0,6.772884369E0,9.740117351E0
2.411153800E-1,4.764707983E-1,6.973881721E0,6.772884369E0,9.733139954E0
2.436715780E-1,4.764707983E-1,6.954739094E0,6.748956203E0,9.702774352E0
2.462277760E-1,5.003990531E-1,6.952346325E0,6.717849731E0,9.680652026E0
2.487839740E-1,5.027918816E-1,6.947560310E0,6.696314335E0,9.662402373E0
2.513401720E-1,5.003990531E-1,6.935596466E0,6.669992924E0,9.635439956E0
2.538963700E-1,5.051847100E-1,6.918846607E0,6.646064758E0,9.607071705E0
2.564525680E-1,4.908277392E-1,6.918846607E0,6.631708145E0,9.596400532E0
2.590061090E-1,5.051847100E-1,6.909275532E0,6.641279221E0,9.596868742E0
2.615346510E-1,5.003990531E-1,6.914061069E0,6.665207386E0,9.616632944E0
2.640407450E-1,5.123631358E-1,6.894918442E0,6.681957245E0,9.615142689E0
2.665468910E-1,5.195416212E-1,6.914061069E0,6.720242500E0,9.655869885E0
2.690529840E-1,5.338985324E-1,6.930810928E0,6.760920525E0,9.696970357E0
2.715590780E-1,5.506483316E-1,6.928418159E0,6.789634228E0,9.716240257E0
2.740651720E-1,5.673980713E-1,6.935596466E0,6.825526714E0,9.747422933E0
2.765712660E-1,5.650052428E-1,6.961917400E0,6.854240417E0,9.786119584E0
2.790773590E-1,5.697908998E-1,6.959524632E0,6.897311211E0,9.814914503E0
2.815835050E-1,5.458626747E-1,6.954739094E0,6.952346325E0,9.848933005E0
2.840895990E-1,5.386841893E-1,6.964310169E0,6.985845566E0,9.878959209E0
2.865956930E-1,5.458626747E-1,6.976274490E0,7.017251492E0,9.910004557E0
2.891017860E-1,5.458626747E-1,6.988238335E0,7.057929516E0,9.947251386E0
2.916078800E-1,5.626124144E-1,7.000202656E0,7.072286606E0,9.966775195E0
2.941139740E-1,5.602195859E-1,7.014858723E0,7.077072144E0,9.980332610E0
2.966200680E-1,5.410770178E-1,7.009773731E0,7.115357399E0,1.000289973E1
2.991262140E-1,5.578267574E-1,7.019644260E0,7.127321243E0,1.001924570E1
3.016323070E-1,5.530411601E-1,7.029215813E0,7.144071102E0,1.003760337E1
3.041384010E-1,5.267201066E-1,7.041179657E0,7.151249409E0,1.004967727E1
3.066444950E-1,5.219344497E-1,7.057929516E0,7.146463871E0,1.005776966E1
3.091505890E-1,5.267201066E-1,7.050751209E0,7.144071102E0,1.005128244E1
3.116567340E-1,5.099703074E-1,7.057929516E0,7.151249409E0,1.006055699E1
3.141628280E-1,5.171487927E-1,7.065107822E0,7.179963589E0,1.008638035E1
3.166689220E-1,5.362913609E-1,7.062715054E0,7.179963589E0,1.008570421E1
3.191750160E-1,5.482555032E-1,7.067500591E0,7.187141895E0,1.009480843E1
3.216811090E-1,5.578267574E-1,7.062715054E0,7.182356358E0,1.008857559E1
3.241872030E-1,5.673980713E-1,7.057929516E0,7.201498985E0,1.009940084E1
3.266932970E-1,5.745765567E-1,7.057929516E0,7.211070061E0,1.010663340E1
3.291994430E-1,5.841478109E-1,7.057929516E0,7.206284523E0,1.010376832E1
3.317055360E-1,5.697908998E-1,7.053143978E0,7.208677292E0,1.010131328E1
3.342116300E-1,5.697908998E-1,7.038786888E0,7.179963589E0,1.007080233E1
3.367177240E-1,5.793621540E-1,7.029215813E0,7.148856640E0,1.004249405E1
3.392238180E-1,5.721837282E-1,7.012166977E0,7.093822002E0,9.991005482E0
3.417299110E-1,5.554339290E-1,7.007380962E0,7.053143978E0,9.957847899E0
3.442360570E-1,5.506483316E-1,7.000202656E0,6.993024349E0,9.910017172E0
3.467421510E-1,5.315057039E-1,7.000202656E0,6.952346325E0,9.880306420E0
3.492482450E-1,5.171487927E-1,6.990631580E0,6.930810928E0,9.857611926E0
3.517543390E-1,5.219344497E-1,6.976274490E0,6.902096748E0,9.827500234E0
3.542604320E-1,5.410770178E-1,6.964310169E0,6.890132904E0,9.811641652E0
3.567665260E-1,5.554339290E-1,6.981060028E0,6.897311211E0,9.829374746E0
3.592726720E-1,5.697908998E-1,6.949953556E0,6.892525673E0,9.804765487E0
3.617787660E-1,5.841478109E-1,6.952346325E0,6.892525673E0,9.807306370E0
3.642848590E-1,5.889334679E-1,6.945167542E0,6.878168583E0,9.792415323E0
3.667909530E-1,5.937191248E-1,6.928418159E0,6.870990276E0,9.775785798E0
3.692970470E-1,6.032904387E-1,6.923632145E0,6.866204739E0,9.769616622E0
3.718031930E-1,6.224330068E-1,6.923632145E0,6.856633186E0,9.764093587E0
3.743092860E-1,6.367899179E-1,6.909275532E0,6.830312252E0,9.736362526E0
3.768153800E-1,6.415755749E-1,6.892525673E0,6.801598549E0,9.704652090E0
3.793214740E-1,6.511468887E-1,6.890132904E0,6.765706062E0,9.678465903E0
3.818275680E-1,6.463612318E-1,6.902096748E0,6.736992359E0,9.666632734E0
3.843336610E-1,6.272186637E-1,6.916453838E0,6.708278179E0,9.655658086E0
3.868397550E-1,6.104688644E-1,6.921239376E0,6.698707104E0,9.651367965E0
3.893459010E-1,6.056832075E-1,6.918846607E0,6.686742783E0,9.641048675E0
3.918519950E-1,6.128616929E-1,6.899703979E0,6.698707104E0,9.636087968E0
3.943580890E-1,6.128616929E-1,6.897311211E0,6.710670948E0,9.642697027E0
3.968641820E-1,5.721837282E-1,6.890132904E0,6.739385128E0,9.655083509E0
3.993702760E-1,5.386841893E-1,6.894918442E0,6.768098831E0,9.676633855E0
4.018763700E-1,5.219344497E-1,6.921239376E0,6.799205780E0,9.716232259E0
4.043825160E-1,5.027918816E-1,6.921239376E0,6.835097790E0,9.740375556E0
4.068886090E-1,4.884349108E-1,6.914061069E0,6.863811970E0,9.754728284E0
4.093947030E-1,4.692923427E-1,6.909275532E0,6.909275532E0,9.782454296E0
4.119007970E-1,4.501497746E-1,6.928418159E0,6.969096184E0,9.837373360E0
4.144068910E-1,4.381856322E-1,6.937989235E0,7.007380962E0,9.870718780E0
4.169129840E-1,4.381856322E-1,6.952346325E0,7.026822567E0,9.894612749E0
4.194191300E-1,4.190430641E-1,6.969096184E0,7.038786888E0,9.914051622E0
4.219252240E-1,4.334000051E-1,6.995417118E0,7.067500591E0,9.953555185E0
4.244313180E-1,4.166502357E-1,6.995417118E0,7.084250450E0,9.964740966E0
4.269374110E-1,4.166502357E-1,7.002595425E0,7.072286606E0,9.961283950E0
4.294435050E-1,4.166502357E-1,7.002595425E0,7.079464912E0,9.966381668E0
4.319495990E-1,4.118646085E-1,7.007380962E0,7.074679375E0,9.966148136E0
4.344557450E-1,3.927220106E-1,7.004988194E0,7.072286606E0,9.961994178E0
4.369618390E-1,3.903291821E-1,6.995417118E0,7.081857681E0,9.961973988E0
4.394679320E-1,3.999004960E-1,6.995417118E0,7.072286606E0,9.955552164E0
4.419740260E-1,3.951148391E-1,7.002595425E0,7.079464912E0,9.965504597E0
4.444801200E-1,3.951148391E-1,6.993024349E0,7.077072144E0,9.957080667E0
4.469862140E-1,3.999004960E-1,6.988238335E0,7.060322285E0,9.942009163E0
4.494923590E-1,3.927220106E-1,6.997809887E0,7.043572426E0,9.936573167E0
4.519984530E-1,4.022932947E-1,6.995417118E0,7.055536747E0,9.943756802E0
4.545045470E-1,4.262215197E-1,6.978667259E0,7.081857681E0,9.951691802E0
4.570106410E-1,4.286143482E-1,6.964310169E0,7.086643219E0,9.945141452E0
4.595167340E-1,4.286143482E-1,6.964310169E0,7.077072144E0,9.938323627E0
4.620228280E-1,4.573282301E-1,6.945167542E0,7.065107822E0,9.917673610E0
4.645289740E-1,4.692923427E-1,6.937989235E0,7.048357964E0,9.901276681E0
4.670350680E-1,4.692923427E-1,6.885347366E0,7.041179657E0,9.859333376E0
4.695411610E-1,5.099703074E-1,6.875775814E0,7.038786888E0,9.852963190E0
4.720472550E-1,5.171487927E-1,6.868597507E0,7.029215813E0,9.841491225E0
4.745533490E-1,5.626124144E-1,6.839883327E0,7.009773731E0,9.810069542E0
4.770594950E-1,5.721837282E-1,6.827919483E0,6.988238335E0,9.786897042E0
4.795655890E-1,5.841478109E-1,6.796812534E0,6.978667259E0,9.759082232E0
4.820716820E-1,5.889334679E-1,6.813562393E0,6.966702938E0,9.762500957E0
4.845777760E-1,5.626124144E-1,6.806384087E0,6.957131863E0,9.749106668E0
4.870838700E-1,5.554339290E-1,6.789634228E0,6.959524632E0,9.738717723E0
4.895899640E-1,5.410770178E-1,6.770491600E0,6.947560310E0,9.716013334E0
4.920961090E-1,5.291129351E-1,6.756134510E0,6.945167542E0,9.703641904E0
4.946022030E-1,5.195416212E-1,6.748956203E0,6.926024914E0,9.684428452E0
4.971082970E-1,5.027918816E-1,6.732206345E0,6.916453838E0,9.665026417E0
4.996143910E-1,4.740779996E-1,6.720242500E0,6.916453838E0,9.655244322E0
5.021204840E-1,4.668995142E-1,6.710670948E0,6.947560310E0,9.670558102E0
5.046265780E-1,4.645066857E-1,6.710670948E0,6.966702938E0,9.684204710E0
5.071326720E-1,4.453641176E-1,6.722635269E0,6.983452797E0,9.703648135E0
5.096388180E-1,4.286143482E-1,6.701099873E0,6.995417118E0,9.696613348E0
5.121449110E-1,4.262215197E-1,6.701099873E0,7.014858723E0,9.710543094E0
5.146510050E-1,4.238287210E-1,6.703492641E0,7.022037029E0,9.717275771E0
5.171570990E-1,3.903291821E-1,6.715456963E0,7.019644260E0,9.722403233E0
5.196631930E-1,3.520440459E-1,6.717849731E0,7.034001350E0,9.732965377E0
5.221693390E-1,3.376871049E-1,6.705885410E0,7.048357964E0,9.734592015E0
5.246754320E-1,3.137588799E-1,6.710670948E0,7.089035988E0,9.766574653E0
5.271815260E-1,2.994019389E-1,6.701099873E0,7.098607540E0,9.766504494E0
5.296876200E-1,2.826521695E-1,6.701099873E0,7.108178616E0,9.772964493E0
5.321937140E-1,2.727817893E-1,6.696314335E0,7.146463871E0,9.797294598E0
5.346998070E-1,2.440679073E-1,6.703492641E0,7.158428192E0,9.810172115E0
5.372059010E-1,2.153540403E-1,6.725028038E0,7.163213730E0,9.827716439E0
5.397120470E-1,2.081755698E-1,6.748956203E0,7.158428192E0,9.840469556E0
5.422181410E-1,2.033899277E-1,6.756134510E0,7.184749126E0,9.864448337E0
5.447242340E-1,1.938186288E-1,6.751348972E0,7.199106216E0,9.871444115E0
5.472303280E-1,1.459621787E-1,6.760920525E0,7.196712971E0,9.875425504E0
5.497364220E-1,1.316052526E-1,6.787241459E0,7.191927433E0,9.889781937E0
5.522425160E-1,1.196411327E-1,6.789634228E0,7.158428192E0,9.866941833E0
5.547486610E-1,8.374879509E-2,6.782455921E0,7.158428192E0,9.861633555E0
5.572547550E-1,5.742774159E-2,6.796812534E0,7.156035423E0,9.869589736E0
5.597608490E-1,6.699903309E-2,6.806384087E0,7.134500027E0,9.860651289E0
5.622669430E-1,6.460621208E-2,6.808776855E0,7.129714012E0,9.858825393E0
5.647730360E-1,4.546362907E-2,6.787241459E0,7.127321243E0,9.842124855E0
5.672791820E-1,4.546362907E-2,6.796812534E0,7.127321243E0,9.848727617E0
5.697852760E-1,4.307080805E-2,6.784848690E0,7.124928474E0,9.838731250E0
5.722913700E-1,5.503492057E-2,6.782455921E0,7.105785847E0,9.823285075E0
5.747974640E-1,5.742774159E-2,6.789634228E0,7.093822002E0,9.819610048E0
5.773035570E-1,1.052841991E-1,6.789634228E0,7.091429234E0,9.818278173E0
5.798096510E-1,1.339980662E-1,6.803991318E0,7.096214771E0,9.832014921E0
5.823157970E-1,1.579262912E-1,6.811169624E0,7.101000309E0,9.840791521E0
5.848218910E-1,1.962114573E-1,6.784848690E0,7.127321243E0,9.842325883E0
5.873279840E-1,2.129612118E-1,6.772884369E0,7.156035423E0,9.855260429E0
5.898340780E-1,2.105683982E-1,6.758527756E0,7.196712971E0,9.874953876E0
5.923401720E-1,2.201396823E-1,6.748956203E0,7.223034382E0,9.887825696E0
5.948462660E-1,2.464607358E-1,6.717849731E0,7.230212688E0,9.872498338E0
5.973524110E-1,2.464607358E-1,6.689135551E0,7.213462830E0,9.840697298E0
5.998585050E-1,2.584248483E-1,6.689135551E0,7.208677292E0,9.837496944E0
6.023645990E-1,2.799602449E-1,6.686742783E0,7.187141895E0,9.820688133E0
6.048706930E-1,3.041875660E-1,6.684350014E0,7.160820961E0,9.800531721E0
6.073767860E-1,3.185445070E-1,6.681957245E0,7.156035423E0,9.795859646E0
6.098828800E-1,3.496512175E-1,6.691528320E0,7.163213730E0,9.808691971E0
6.123890260E-1,3.424727321E-1,6.681957245E0,7.170392036E0,9.807158720E0
6.148951200E-1,3.448655605E-1,6.653243542E0,7.187141895E0,9.799979107E0
6.174012140E-1,3.472583890E-1,6.641279221E0,7.213462830E0,9.811280450E0
6.199073070E-1,3.472583890E-1,6.619743824E0,7.220641613E0,9.802002958E0
6.224134010E-1,3.448655605E-1,6.600601196E0,7.242177010E0,9.804896544E0
6.249194950E-1,3.472583890E-1,6.581458569E0,7.275676250E0,9.816906345E0
6.274256410E-1,3.568296731E-1,6.591030121E0,7.287640572E0,9.832533273E0
6.299317340E-1,3.616153300E-1,6.598208427E0,7.311568737E0,9.855260397E0
6.324378280E-1,3.544368446E-1,6.617351055E0,7.321139812E0,9.874920183E0
6.349439220E-1,3.568296731E-1,6.614958286E0,7.318747044E0,9.871628986E0
6.374500160E-1,3.616153300E-1,6.600601196E0,7.325925827E0,9.867516963E0
6.399561090E-1,3.472583890E-1,6.598208427E0,7.316354275E0,9.858295122E0
6.424622550E-1,3.281157911E-1,6.593422890E0,7.325925827E0,9.861545244E0
6.449683490E-1,3.113660514E-1,6.595815659E0,7.313961506E0,9.853718381E0
6.474744430E-1,2.898306549E-1,6.591030121E0,7.294818878E0,9.835652613E0
6.499805360E-1,2.679961324E-1,6.581458569E0,7.282855034E0,9.819745224E0
6.524866300E-1,2.488535494E-1,6.576673031E0,7.280461788E0,9.814259019E0
6.549927240E-1,2.488535494E-1,6.583851337E0,7.287640572E0,9.824394720E0
6.574988700E-1,2.488535494E-1,6.574280262E0,7.285247803E0,9.816207241E0
6.600049640E-1,2.249253243E-1,6.588637352E0,7.285247803E0,9.825251605E0
6.625110570E-1,2.129612118E-1,6.605386734E0,7.278069019E0,9.830909166E0
6.650171510E-1,2.033899277E-1,6.614958286E0,7.290033340E0,9.845995465E0
6.675232450E-1,1.746760458E-1,6.638886452E0,7.299604416E0,9.868614374E0
6.700293390E-1,1.555334777E-1,6.658029079E0,7.285247803E0,9.870581413E0
6.725354840E-1,1.363908947E-1,6.667600155E0,7.285247803E0,9.876757051E0
6.750415780E-1,1.052841991E-1,6.693921566E0,7.278069019E0,9.888880591E0
6.775476720E-1,8.135596663E-2,6.708278179E0,7.275676250E0,9.896619616E0
6.800537660E-1,6.939185411E-2,6.696314335E0,7.275676250E0,9.888422817E0
6.825598590E-1,5.024927482E-2,6.701099873E0,7.268497944E0,9.886269613E0
6.850660050E-1,5.024927482E-2,6.710670948E0,7.263712406E0,9.889244030E0
6.875720990E-1,5.264209956E-2,6.725028038E0,7.251748085E0,9.890228693E0
6.900781930E-1,4.546362907E-2,6.729813576E0,7.244569778E0,9.888187346E0
6.925842860E-1,4.546362907E-2,6.727420807E0,7.223034382E0,9.870789398E0
6.950903800E-1,6.221338734E-2,6.729813576E0,7.194320202E0,9.851522950E0
6.975964740E-1,6.221338734E-2,6.744170666E0,7.182356358E0,9.852611396E0
7.001026200E-1,6.460621208E-2,6.748956203E0,7.182356358E0,9.855903137E0
7.026087140E-1,6.460621208E-2,6.753741741E0,7.177570820E0,9.855695021E0
7.051148070E-1,6.221338734E-2,6.763313293E0,7.179963589E0,9.863982682E0
7.076209010E-1,9.092725813E-2,6.777669907E0,7.191927433E0,9.882757577E0
7.101269950E-1,1.196411327E-1,6.782455921E0,7.206284523E0,9.896795388E0
7.126330890E-1,1.172483116E-1,6.782455921E0,7.201498985E0,9.893282727E0
7.151392340E-1,1.435693651E-1,6.813562393E0,7.189534664E0,9.906293623E0
7.176453280E-1,1.531406492E-1,6.813562393E0,7.206284523E0,9.918599759E0
7.201514220E-1,1.435693651E-1,6.818347931E0,7.201498985E0,9.918269421E0
7.226575160E-1,1.435693651E-1,6.806384087E0,7.189534664E0,9.901357744E0
7.251636090E-1,1.507478207E-1,6.808776855E0,7.182356358E0,9.897899273E0
7.276697030E-1,1.531406492E-1,6.801598549E0,7.175177574E0,9.887788838E0
7.301758490E-1,1.770688742E-1,6.796812534E0,7.179963589E0,9.888371511E0
7.326819430E-1,1.674975902E-1,6.806384087E0,7.177570820E0,9.893050220E0
7.351880360E-1,1.627119333E-1,6.825526714E0,7.158428192E0,9.892289133E0
7.376941300E-1,1.459621787E-1,6.842276573E0,7.172784805E0,9.913974759E0
7.402002240E-1,1.483550072E-1,6.854240417E0,7.172784805E0,9.922271049E0
7.427063180E-1,1.698904037E-1,6.842276573E0,7.165606499E0,9.909163837E0
7.452124640E-1,1.866401732E-1,6.861418724E0,7.182356358E0,9.934794628E0
7.477185570E-1,1.794617027E-1,6.885347366E0,7.199106216E0,9.963299914E0
7.502246510E-1,2.057827413E-1,6.890132904E0,7.208677292E0,9.974031596E0
7.527307450E-1,2.057827413E-1,6.892525673E0,7.223034382E0,9.986064408E0
7.552368390E-1,2.344966233E-1,6.904489517E0,7.227819920E0,9.998417122E0
7.577429320E-1,2.416750938E-1,6.906882763E0,7.227819920E0,1.000024085E1
7.602490780E-1,2.368894368E-1,6.890132904E0,7.225427151E0,9.986833610E0
7.627551720E-1,2.416750938E-1,6.887740135E0,7.230212688E0,9.988761011E0
7.652612660E-1,2.464607358E-1,6.885347366E0,7.261319637E0,1.000977093E1
7.677673590E-1,2.344966233E-1,6.870990276E0,7.249355316E0,9.990928312E0
7.702734530E-1,2.225325108E-1,6.863811970E0,7.268497944E0,9.999624885E0
7.727795470E-1,2.273181528E-1,6.878168583E0,7.258926392E0,1.000264410E1
7.752856930E-1,2.153540403E-1,6.894918442E0,7.273283482E0,1.002431695E1
7.777917860E-1,2.344966233E-1,6.926024914E0,7.266105175E0,1.004097078E1
7.802978800E-1,2.416750938E-1,6.933203697E0,7.273283482E0,1.005128713E1
7.828039740E-1,2.416750938E-1,6.949953556E0,7.273283482E0,1.006284820E1
7.853100680E-1,2.297109663E-1,6.935596466E0,7.282855034E0,1.005958463E1
7.878162140E-1,2.368894368E-1,6.935596466E0,7.275676250E0,1.005455518E1
7.903223070E-1,2.249253243E-1,6.926024914E0,7.268497944E0,1.004248350E1
7.928284010E-1,2.153540403E-1,6.906882763E0,7.278069019E0,1.003601990E1
7.953344950E-1,2.081755698E-1,6.890132904E0,7.261319637E0,1.001219413E1
7.978405890E-1,1.842473447E-1,6.868597507E0,7.237390995E0,9.979549450E0
8.003466820E-1,1.890329868E-1,6.863811970E0,7.206284523E0,9.953802532E0
8.028528280E-1,1.914258152E-1,6.870990276E0,7.187141895E0,9.944956503E0
8.053589220E-1,2.057827413E-1,6.873383045E0,7.182356358E0,9.943439237E0
8.078650160E-1,2.249253243E-1,6.890132904E0,7.167999268E0,9.945086040E0
8.103711090E-1,2.464607358E-1,6.897311211E0,7.179963589E0,9.959192837E0
8.128772030E-1,2.440679073E-1,6.892525673E0,7.165606499E0,9.945471120E0
8.153833490E-1,2.464607358E-1,6.890132904E0,7.175177574E0,9.950771204E0
8.178894430E-1,2.440679073E-1,6.885347366E0,7.184749126E0,9.954305476E0
8.203955360E-1,2.225325108E-1,6.875775814E0,7.182356358E0,9.945454068E0
8.229016300E-1,2.057827413E-1,6.873383045E0,7.191927433E0,9.950354829E0
8.254077240E-1,1.938186288E-1,6.878168583E0,7.191927433E0,9.953420966E0
8.279138180E-1,1.866401732E-1,6.870990276E0,7.187141895E0,9.944865537E0
8.304199640E-1,1.627119333E-1,6.844669342E0,7.191927433E0,9.929742886E0
8.329260570E-1,1.387837082E-1,6.842276573E0,7.194320202E0,9.929463872E0
8.354321510E-1,1.531406492E-1,6.849454880E0,7.199106216E0,9.938089078E0
8.379382450E-1,1.411765367E-1,6.854240417E0,7.203891754E0,9.944676914E0
8.404443390E-1,1.196411327E-1,6.859025955E0,7.213462830E0,9.954626917E0
8.429504320E-1,1.268195957E-1,6.866204739E0,7.208677292E0,9.956198020E0
8.454565260E-1,1.292124242E-1,6.847062111E0,7.225427151E0,9.955187236E0
8.479626720E-1,1.292124242E-1,6.849454880E0,7.220641613E0,9.953360905E0
8.504687660E-1,1.196411327E-1,6.851847649E0,7.220641613E0,9.954888021E0
8.529748590E-1,1.148554832E-1,6.861418724E0,7.223034382E0,9.963156346E0
8.554809530E-1,1.028913707E-1,6.842276573E0,7.234998226E0,9.958540790E0
8.579870470E-1,9.092725813E-2,6.835097790E0,7.237390995E0,9.955232693E0
8.604931930E-1,1.052841991E-1,6.839883327E0,7.237390995E0,9.958660407E0
8.629992860E-1,1.028913707E-1,6.861418724E0,7.266105175E0,9.994295271E0
8.655053800E-1,1.172483116E-1,6.851847649E0,7.285247803E0,1.000181978E1
8.680114740E-1,1.148554832E-1,6.870990276E0,7.294818878E0,1.002188014E1
8.705175680E-1,9.810572863E-2,6.880561352E0,7.323532581E0,1.004917304E1
8.730237140E-1,7.896314561E-2,6.878168583E0,7.337889671E0,1.005783590E1
8.755298070E-1,9.092725813E-2,6.892525673E0,7.349853992E0,1.007648409E1
8.780359010E-1,7.417750359E-2,6.899703979E0,7.366603374E0,1.009347624E1
8.805419950E-1,8.853443712E-2,6.902096748E0,7.388139248E0,1.011095344E1
8.830480890E-1,1.052841991E-1,6.906882763E0,7.421638489E0,1.013887726E1
8.855541820E-1,8.853443712E-2,6.909275532E0,7.426424026E0,1.014385038E1
8.880602760E-1,8.614161611E-2,6.904489517E0,7.438388348E0,1.014933580E1
8.905664220E-1,6.699903309E-2,6.906882763E0,7.431210041E0,1.014556066E1
8.930725160E-1,6.699903309E-2,6.909275532E0,7.421638489E0,1.014018220E1
8.955786090E-1,6.460621208E-2,6.918846607E0,7.416852951E0,1.014319082E1
8.980847030E-1,5.503492057E-2,6.940382004E0,7.407281399E0,1.015084967E1
9.005907970E-1,5.264209956E-2,6.942774773E0,7.400103092E0,1.014723699E1
9.030969430E-1,6.221338734E-2,6.952346325E0,7.383353233E0,1.014164163E1
9.056030360E-1,6.699903309E-2,6.964310169E0,7.378567696E0,1.014639671E1
9.081091300E-1,5.982056633E-2,6.976274490E0,7.359425068E0,1.014066672E1
9.106152240E-1,5.024927482E-2,6.981060028E0,7.349853992E0,1.013696591E1
9.131213180E-1,4.785645381E-2,7.026822567E0,7.335496902E0,1.015815143E1
9.156274110E-1,5.982056633E-2,7.031608582E0,7.333104134E0,1.015979891E1
9.181335570E-1,6.460621208E-2,7.048357964E0,7.345067978E0,1.018005636E1
9.206396510E-1,6.460621208E-2,7.079464912E0,7.352246761E0,1.020678842E1
9.231457450E-1,5.024927482E-2,7.077072144E0,7.352246761E0,1.020504814E1
9.256518390E-1,5.503492057E-2,7.074679375E0,7.361817837E0,1.021031238E1
9.281579320E-1,5.024927482E-2,7.060322285E0,7.368996620E0,1.020552727E1
9.306640780E-1,3.349951655E-2,7.034001350E0,7.385746002E0,1.019938926E1
9.331701720E-1,1.914258115E-2,7.034001350E0,7.390532017E0,1.020281848E1
9.356762660E-1,1.674975827E-2,7.022037029E0,7.397710323E0,1.019977464E1
9.381823590E-1,1.674975827E-2,7.019644260E0,7.383353233E0,1.018771766E1
9.406884530E-1,-3.110669367E-2,6.990631580E0,7.383353233E0,1.016778257E1
9.431945470E-1,-8.374879509E-2,6.983452797E0,7.376174927E0,1.015793204E1
9.457006930E-1,-1.004985496E-1,6.985845566E0,7.366603374E0,1.015278206E1
9.482067860E-1,-9.810572863E-2,6.983452797E0,7.349853992E0,1.013896402E1
9.507128800E-1,-1.076770201E-1,6.990631580E0,7.335496902E0,1.013360938E1
9.532189740E-1,-1.196411327E-1,6.988238335E0,7.313961506E0,1.011651234E1
9.557250680E-1,-1.531406492E-1,6.978667259E0,7.287640572E0,1.009133063E1
9.582311610E-1,-1.794617027E-1,6.981060028E0,7.292426109E0,1.009687497E1
9.607373070E-1,-2.225325108E-1,6.985845566E0,7.290033340E0,1.009931409E1
9.632434010E-1,-2.392822653E-1,6.971488953E0,7.270890713E0,1.007594988E1
9.657494950E-1,-2.656033039E-1,6.945167542E0,7.261319637E0,1.005150039E1
9.682555890E-1,-2.970091105E-1,6.937989235E0,7.266105175E0,1.005088023E1
9.707616820E-1,-2.994019389E-1,6.928418159E0,7.268497944E0,1.004607794E1
9.732677760E-1,-3.137588799E-1,6.909275532E0,7.254140854E0,1.002292834E1
9.757739220E-1,-3.089732230E-1,6.892525673E0,7.244569778E0,1.000430737E1
9.782800160E-1,-3.257229924E-1,6.899703979E0,7.223034382E0,9.994210132E0
9.807861090E-1,-3.424727321E-1,6.897311211E0,7.208677292E0,9.982746005E0
9.832922030E-1,-3.424727321E-1,6.851847649E0,7.223034382E0,9.961793486E0
9.857982970E-1,-3.592225015E-1,6.873383045E0,7.242177010E0,9.991074173E0
9.883044430E-1,-3.472583890E-1,6.882954121E0,7.256533623E0,1.000764338E1
9.908105360E-1,-3.448655605E-1,6.854240417E0,7.273283482E0,1.000000983E1
9.933166300E-1,-3.329014480E-1,6.837490559E0,7.270890713E0,9.986388350E0
9.958227240E-1,-3.185445070E-1,6.830312252E0,7.280461788E0,9.987980773E0
9.983288180E-1,-3.113660514E-1,6.811169624E0,7.294818878E0,9.985157131E0
1.000834911E0,-3.065803945E-1,6.806384087E0,7.323532581E0,1.000274889E1
1.003341057E0,-2.874378264E-1,6.777669907E0,7.359425068E0,1.000902429E1
1.005847151E0,-2.703889608E-1,6.794419765E0,7.378567696E0,1.003396788E1
1.008353245E0,-2.826521695E-1,6.777669907E0,7.421638489E0,1.005472125E1
1.010859339E0,-2.727817893E-1,6.770491600E0,7.443173885E0,1.006552552E1
1.013365432E0,-2.799602449E-1,6.756134510E0,7.462316513E0,1.007024821E1
1.015871578E0,-2.703889608E-1,6.746563435E0,7.483851910E0,1.007954700E1
1.018377672E0,-2.703889608E-1,6.732206345E0,7.505387306E0,1.008595811E1
1.020883766E0,-2.656033039E-1,6.701099873E0,7.505387306E0,1.006509430E1
1.023389859E0,-2.826521695E-1,6.674778938E0,7.512565613E0,1.005341774E1
1.025895953E0,-2.850449979E-1,6.674778938E0,7.514958382E0,1.005527344E1
1.028402047E0,-2.946162820E-1,6.679564476E0,7.500601768E0,1.004800514E1
1.030908193E0,-2.751746178E-1,6.662814617E0,7.479066372E0,1.002024219E1
1.033414286E0,-2.679961324E-1,6.677171707E0,7.469494820E0,1.002246461E1
1.035920380E0,-2.512463629E-1,6.698707104E0,7.467102051E0,1.003461084E1
1.038426474E0,-2.560320199E-1,6.746563435E0,7.498209000E0,1.008983691E1
1.040932568E0,-2.703889608E-1,6.818347931E0,7.560422421E0,1.018444725E1
1.043438714E0,-3.017947674E-1,6.880561352E0,7.594220638E0,1.025209206E1
1.045944807E0,-3.089732230E-1,6.890132904E0,7.599006653E0,1.026227548E1
1.048450901E0,-3.400799036E-1,6.835097790E0,7.560422421E0,1.019775482E1
1.050956995E0,-3.687937856E-1,6.756134510E0,7.493422985E0,1.009617504E1
1.053463089E0,-4.429712892E-1,6.655636311E0,7.400103092E0,9.962692610E0
1.055969182E0,-4.908277392E-1,6.567101955E0,7.349853992E0,9.868540605E0
1.058475328E0,-5.434698462E-1,6.531209469E0,7.330711365E0,9.833177803E0
1.060981422E0,-5.410770178E-1,6.571887493E0,7.330711365E0,9.860111494E0
1.063487516E0,-5.171487927E-1,6.686742783E0,7.330711365E0,9.935758704E0
1.065993609E0,-4.908277392E-1,6.820741177E0,7.347461224E0,1.003736063E1
1.068499703E0,-4.262215197E-1,6.942774773E0,7.318747044E0,1.009692253E1
1.071005797E0,-4.022932947E-1,7.043572426E0,7.208677292E0,1.008656437E1
1.073511943E0,-3.281157911E-1,7.055536747E0,7.000202656E0,9.944400232E0
1.076018036E0,-2.799602449E-1,7.009773731E0,6.756134510E0,9.739643680E0
1.078524130E0,-2.727817893E-1,6.916453838E0,6.528816700E0,9.515103315E0
1.081030224E0,-3.065803945E-1,6.794419765E0,6.382555485E0,9.327118848E0
1.083536318E0,-3.807578981E-1,6.693921566E0,6.325127602E0,9.217418385E0
1.086042464E0,-4.453641176E-1,6.605386734E0,6.351448536E0,9.174441760E0
1.088548557E0,-4.908277392E-1,6.595815659E0,6.420840263E0,9.218073864E0
1.091054651E0,-4.884349108E-1,6.602993965E0,6.538387775E0,9.305300246E0
1.093560745E0,-4.812564552E-1,6.636493683E0,6.653243542E0,9.409585847E0
1.096066839E0,-4.381856322E-1,6.698707104E0,6.744170666E0,9.515698686E0
1.098572932E0,-3.640081584E-1,6.772884369E0,6.808776855E0,9.610614282E0
1.101079078E0,-3.017947674E-1,6.832705021E0,6.839883327E0,9.672690521E0
1.103585172E0,-2.249253243E-1,6.851847649E0,6.870990276E0,9.706127703E0
1.106091266E0,-1.555334777E-1,6.823133945E0,6.892525673E0,9.699807094E0
1.108597359E0,-1.124626622E-1,6.770491600E0,6.926024914E0,9.686177030E0
1.111103453E0,-9.810572863E-2,6.686742783E0,6.995417118E0,9.677707085E0
1.113609599E0,-7.657032460E-2,6.605386734E0,7.074679375E0,9.679260570E0
1.116115693E0,-7.417750359E-2,6.535995007E0,7.163213730E0,9.697234862E0
1.118621786E0,-8.135596663E-2,6.478567123E0,7.258926392E0,9.729874774E0
1.121127880E0,-8.135596663E-2,6.447161674E0,7.364210606E0,9.787957412E0
1.123633974E0,-6.699903309E-2,6.420840263E0,7.431210041E0,9.821128307E0
1.126140068E0,-8.374879509E-2,6.411269188E0,7.486244678E0,9.856736065E0
1.128646214E0,-8.374879509E-2,6.406483650E0,7.510172844E0,9.871815576E0
1.131152307E0,-8.853443712E-2,6.394519329E0,7.524529934E0,9.875032482E0
1.133658401E0,-1.004985496E-1,6.401698112E0,7.548458099E0,9.898033055E0
1.136164495E0,-9.810572863E-2,6.413661957E0,7.558029652E0,9.913046789E0
1.138670589E0,-1.028913707E-1,6.430411816E0,7.608577728E0,9.962491546E0
1.141176734E0,-1.196411327E-1,6.459424496E0,7.663612843E0,1.002344455E1
1.143682828E0,-1.339980662E-1,6.461817741E0,7.716254711E0,1.006546724E1
1.146188922E0,-1.674975902E-1,6.461817741E0,7.711469173E0,1.006230097E1
1.148695016E0,-2.464607358E-1,6.423233509E0,7.680362701E0,1.001532041E1
1.151201109E0,-3.448655605E-1,6.363412857E0,7.649255753E0,9.956056901E0
1.153707203E0,-4.070789516E-1,6.303592205E0,7.587042332E0,9.872395824E0
1.156213349E0,-4.692923427E-1,6.238986015E0,7.529315472E0,9.789574724E0
1.158719443E0,-5.147559643E-1,6.188736439E0,7.505387306E0,9.741471707E0
1.161225536E0,-5.793621540E-1,6.207879066E0,7.507780075E0,9.759107780E0
1.163731630E0,-6.511468887E-1,6.200700760E0,7.543672562E0,9.786709248E0
1.166237724E0,-7.277171612E-1,6.219843388E0,7.579864025E0,9.832108760E0
1.168743818E0,-7.683951855E-1,6.215057850E0,7.562815189E0,9.819040117E0
1.171249964E0,-8.066803217E-1,6.205486298E0,7.505387306E0,9.771879653E0
1.173756057E0,-8.353942037E-1,6.212665081E0,7.464709282E0,9.747665133E0
1.176262151E0,-8.353942037E-1,6.210271835E0,7.421638489E0,9.713190907E0
1.178768245E0,-8.572286963E-1,6.195915222E0,7.368996620E0,9.665729029E0
1.181274339E0,-8.596215248E-1,6.183950901E0,7.313961506E0,9.616352262E0
1.183780484E0,-8.572286963E-1,6.164808273E0,7.287640572E0,9.583809638E0
1.186286578E0,-8.377870321E-1,6.157629967E0,7.244569778E0,9.544741232E0
1.188792672E0,-7.995018363E-1,6.148058891E0,7.215855598E0,9.513485341E0
1.191298766E0,-7.899305820E-1,6.145665646E0,7.194320202E0,9.494811200E0
1.193804859E0,-7.444669604E-1,6.150451660E0,7.172784805E0,9.477928494E0
1.196311005E0,-7.085745931E-1,6.148058891E0,7.136892796E0,9.446477908E0
1.198817099E0,-6.774678826E-1,6.160022736E0,7.103393078E0,9.426719262E0
1.201323193E0,-6.439684033E-1,6.167201042E0,7.043572426E0,9.384081016E0
1.203829286E0,-6.128616929E-1,6.181558132E0,6.983452797E0,9.346436399E0
1.206335380E0,-5.841478109E-1,6.188736439E0,6.937989235E0,9.315437832E0
1.208841474E0,-5.434698462E-1,6.207879066E0,6.933203697E0,9.322147579E0
1.211347620E0,-5.075774789E-1,6.215057850E0,6.942774773E0,9.332025531E0
1.213853714E0,-4.812564552E-1,6.219843388E0,6.964310169E0,9.349848965E0
1.216359807E0,-4.621138871E-1,6.200700760E0,6.990631580E0,9.355809374E0
1.218865901E0,-4.692923427E-1,6.198307991E0,7.045965195E0,9.396003554E0
1.221371995E0,-4.908277392E-1,6.186343670E0,7.101000309E0,9.430586687E0
1.223878089E0,-5.051847100E-1,6.193522453E0,7.167999268E0,9.486577121E0
1.226384234E0,-5.051847100E-1,6.176772594E0,7.237390995E0,9.528250610E0
1.228890328E0,-5.243272781E-1,6.171987057E0,7.309175968E0,9.580834862E0
1.231396422E0,-5.051847100E-1,6.186343670E0,7.368996620E0,9.634737712E0
1.233902516E0,-5.123631358E-1,6.191129684E0,7.435995579E0,9.689511494E0
1.236408609E0,-5.602195859E-1,6.167201042E0,7.510172844E0,9.734007953E0
1.238914755E0,-6.128616929E-1,6.145665646E0,7.577471256E0,9.775626646E0
1.241420849E0,-6.607181430E-1,6.128916264E0,7.639684677E0,9.816564827E0
1.243926943E0,-7.061817646E-1,6.097809315E0,7.701898098E0,9.848918998E0
1.246433036E0,-7.516453862E-1,6.085845470E0,7.766504288E0,9.895507805E0
1.248939130E0,-8.162516356E-1,6.085845470E0,7.833503246E0,9.953268555E0
1.251445276E0,-8.691928387E-1,6.069095612E0,7.898109436E0,9.998477404E0
1.253951370E0,-8.907282352E-1,6.061916828E0,7.917252064E0,1.001114942E1
1.256457464E0,-9.194421172E-1,6.071488380E0,7.934001446E0,1.003278246E1
1.258963557E0,-9.577272534E-1,6.076273918E0,7.950751305E0,1.005250180E1
1.261469651E0,-9.864411354E-1,6.078666687E0,7.955537319E0,1.006050838E1
1.263975745E0,-9.864411354E-1,6.093023777E0,7.943572998E0,1.005973940E1
1.266481891E0,-9.888339639E-1,6.119344711E0,7.929215908E0,1.006462305E1
1.268987984E0,-1.007976532E0,6.128916264E0,7.926823139E0,1.007045959E1
1.271494078E0,-1.027119160E0,6.116951942E0,7.912466049E0,1.005381489E1
1.274000172E0,-1.022333503E0,6.119344711E0,7.929215908E0,1.006796953E1
1.276506266E0,-1.029511929E0,6.116951942E0,7.931608677E0,1.006913164E1
1.279012359E0,-1.051047325E0,6.131309032E0,7.941180229E0,1.008761589E1
1.281518505E0,-1.063011408E0,6.112166405E0,7.926823139E0,1.006593744E1
1.284024599E0,-1.074975610E0,6.100202084E0,7.917252064E0,1.005240858E1
1.286530693E0,-1.096511006E0,6.090631008E0,7.900502205E0,1.003573901E1
1.289036786E0,-1.137188911E0,6.090631008E0,7.869395256E0,1.001580583E1
1.291542880E0,-1.177866936E0,6.069095612E0,7.816753387E0,9.966088781E0
1.294049026E0,-1.192223907E0,6.069095612E0,7.783253670E0,9.941547016E0
1.296555120E0,-1.232901812E0,6.059524059E0,7.764111042E0,9.925688841E0
1.299061214E0,-1.271187067E0,6.035595894E0,7.737790108E0,9.895338807E0
1.301567307E0,-1.287936807E0,6.023632050E0,7.706683636E0,9.865895649E0
1.304073401E0,-1.319043517E0,6.016453266E0,7.692326546E0,9.854413904E0
1.306579547E0,-1.354935765E0,6.023632050E0,7.675576687E0,9.850607670E0
1.309085641E0,-1.371685624E0,6.028417587E0,7.656434059E0,9.840951304E0
1.311591734E0,-1.383649707E0,6.042774677E0,7.634898663E0,9.834698262E0
1.314097828E0,-1.419841170E0,6.033203125E0,7.606184959E0,9.811704161E0
1.316603922E0,-1.431805253E0,6.028417587E0,7.558029652E0,9.773213244E0
1.319110016E0,-1.424626827E0,6.037988663E0,7.524529934E0,9.752200747E0
1.321616161E0,-1.453340650E0,6.049952984E0,7.491030216E0,9.738052364E0
1.324122255E0,-1.441376567E0,6.071488380E0,7.459923744E0,9.725790448E0
1.326628349E0,-1.450947881E0,6.071488380E0,7.440781116E0,9.712540581E0
1.329134443E0,-1.462911963E0,6.085845470E0,7.435995579E0,9.719653119E0
1.331640536E0,-1.474876046E0,6.090631008E0,7.438388348E0,9.726287403E0
1.334146682E0,-1.505982757E0,6.090631008E0,7.438388348E0,9.731052942E0
1.336652776E0,-1.527518153E0,6.078666687E0,7.424031258E0,9.715952888E0
1.339158870E0,-1.539482236E0,6.069095612E0,7.414460182E0,9.704542590E0
1.341664964E0,-1.577767372E0,6.073881149E0,7.404888630E0,9.706377167E0
1.344171057E0,-1.628016710E0,6.076273918E0,7.390532017E0,9.705230890E0
1.346677203E0,-1.654337764E0,6.069095612E0,7.361817837E0,9.683342235E0
1.349183297E0,-1.704586983E0,6.073881149E0,7.345067978E0,9.682338178E0
1.351689391E0,-1.716551185E0,6.088238239E0,7.325925827E0,9.678965960E0
1.354195484E0,-1.735693693E0,6.100202084E0,7.299604416E0,9.670021855E0
1.356701578E0,-1.762014747E0,6.112166405E0,7.266105175E0,9.657098868E0
1.359207672E0,-1.788335800E0,6.119344711E0,7.223034382E0,9.634145022E0
1.361713818E0,-1.788335800E0,6.128916264E0,7.187141895E0,9.613364038E0
1.364219911E0,-1.807478428E0,6.131309032E0,7.179963589E0,9.613105942E0
1.366726005E0,-1.797907114E0,6.124130249E0,7.177570820E0,9.604944777E0
1.369232099E0,-1.795514345E0,6.157629967E0,7.182356358E0,9.629461118E0
1.371738193E0,-1.795514345E0,6.188736439E0,7.203891754E0,9.665422230E0
1.374244286E0,-1.807478428E0,6.205486298E0,7.196712971E0,9.673040682E0
1.376750432E0,-1.836192250E0,6.210271835E0,7.156035423E0,9.651317072E0
1.379256526E0,-1.821835399E0,6.219843388E0,7.124928474E0,9.631725793E0
1.381762620E0,-1.862513304E0,6.191129684E0,7.122535706E0,9.619228527E0
1.384268714E0,-1.912762642E0,6.119344711E0,7.172784805E0,9.620492840E0
1.386774807E0,-1.922333837E0,6.069095612E0,7.239784241E0,9.640734659E0
1.389280953E0,-1.862513304E0,6.033203125E0,7.313961506E0,9.662428715E0
1.391787047E0,-1.793121457E0,6.014060497E0,7.388139248E0,9.693751068E0
1.394293141E0,-1.702194214E0,6.021239281E0,7.471887589E0,9.745865367E0
1.396799234E0,-1.570588946E0,6.054738522E0,7.550850868E0,9.805200510E0
1.399305328E0,-1.422233939E0,6.102594852E0,7.644470215E0,9.884449311E0
1.401811422E0,-1.261615753E0,6.148058891E0,7.704290867E0,9.937122330E0
1.404317568E0,-1.086939692E0,6.176772594E0,7.771289825E0,9.986335821E0
1.406823661E0,-9.361918569E-1,6.212665081E0,7.821538925E0,1.003245402E1
1.409329755E0,-8.353942037E-1,6.236593246E0,7.835896015E0,1.004958930E1
1.411835849E0,-7.564310431E-1,6.229414463E0,7.867002487E0,1.006317647E1
1.414341995E0,-6.774678826E-1,6.203093529E0,7.917252064E0,1.008068511E1
1.416848089E0,-6.631109715E-1,6.179165363E0,7.962715626E0,1.010082377E1
1.419354182E0,-6.894320250E-1,6.152844429E0,8.010572433E0,1.012433118E1
1.421860276E0,-7.325028181E-1,6.136094570E0,8.027321815E0,1.013045470E1
1.424366370E0,-7.995018363E-1,6.133701801E0,8.041678429E0,1.014544691E1
1.426872464E0,-8.739784956E-1,6.116951942E0,8.029714584E0,1.013199170E1
1.429378609E0,-9.337990284E-1,6.140880108E0,8.044071198E0,1.016314275E1
1.431884703E0,-9.888339639E-1,6.145665646E0,8.034500122E0,1.016367016E1
1.434390797E0,-1.074975610E0,6.157629967E0,7.996214867E0,1.014945474E1
1.436896891E0,-1.120439172E0,6.155237198E0,7.977072716E0,1.013785076E1
1.439402984E0,-1.192223907E0,6.167201042E0,7.914859295E0,1.010449228E1
1.441909130E0,-1.232901812E0,6.162415504E0,7.871788502E0,1.007275861E1
1.444415224E0,-1.278365493E0,6.152844429E0,7.847859859E0,1.005388568E1
1.446921318E0,-1.319043517E0,6.157629967E0,7.828717709E0,1.004714405E1
1.449427411E0,-1.357328653E0,6.131309032E0,7.795217991E0,1.001003072E1
1.451933505E0,-1.354935765E0,6.136094570E0,7.761718273E0,9.986579898E0
1.454439599E0,-1.374078393E0,6.119344711E0,7.721040249E0,9.947307859E0
1.456945745E0,-1.366899967E0,6.138487339E0,7.716254711E0,9.954397475E0
1.459451839E0,-1.366899967E0,6.188736439E0,7.713861942E0,9.983613589E0
1.461957932E0,-1.374078393E0,6.212665081E0,7.730611801E0,1.001237523E1
1.464464026E0,-1.390828133E0,6.193522453E0,7.771289825E0,1.003429464E1
1.466970120E0,-1.415055513E0,6.150451660E0,7.802396297E0,1.003532888E1
1.469476266E0,-1.462911963E0,6.104988098E0,7.797610760E0,1.001068053E1
1.471982359E0,-1.517946839E0,6.028417587E0,7.776075363E0,9.955567752E0
1.474488453E0,-1.549053550E0,5.959025860E0,7.740182877E0,9.890398731E0
1.476994547E0,-1.580160260E0,5.899205208E0,7.692326546E0,9.821884555E0
1.479500641E0,-1.599302888E0,5.836692810E0,7.620542049E0,9.731259621E0
1.482006786E0,-1.613659739E0,5.791228771E0,7.536494255E0,9.640589924E0
1.484512880E0,-1.620838284E0,5.779264927E0,7.450352192E0,9.567380395E0
1.487018974E0,-1.630409479E0,5.745765209E0,7.385746002E0,9.498489191E0
1.489525068E0,-1.604088426E0,5.740979671E0,7.290033340E0,9.416821830E0
1.492031161E0,-1.584945917E0,5.755336761E0,7.215855598E0,9.365069504E0
1.494537255E0,-1.551446438E0,5.784050465E0,7.141678333E0,9.320182146E0
1.497043401E0,-1.501197100E0,5.827121258E0,7.053143978E0,9.271233729E0
1.499549495E0,-1.458126307E0,5.865406513E0,6.964310169E0,9.221211527E0
1.502055589E0,-1.407876968E0,5.896812439E0,6.887740135E0,9.175809429E0
1.504561682E0,-1.383649707E0,5.927918911E0,6.832705021E0,9.150987216E0
1.507067828E0,-1.371685624E0,5.963811398E0,6.818347931E0,9.161792202E0
1.509573922E0,-1.378864050E0,6.002096653E0,6.839883327E0,9.203827151E0
1.512080016E0,-1.390828133E0,6.011667728E0,6.887740135E0,9.247459972E0
1.514586109E0,-1.429412484E0,6.014060497E0,6.937989235E0,9.292353757E0
1.517092203E0,-1.474876046E0,6.014060497E0,7.026822567E0,9.365917916E0
1.519598297E0,-1.525125384E0,5.980561256E0,7.122535706E0,9.424629184E0
1.522104443E0,-1.596910000E0,5.954239845E0,7.206284523E0,9.483334346E0
1.524610536E0,-1.644766450E0,5.939883232E0,7.306783199E0,9.559108233E0
1.527116630E0,-1.671087503E0,5.908776283E0,7.409674644E0,9.623380328E0
1.529622724E0,-1.649552107E0,5.894419670E0,7.507780075E0,9.686690201E0
1.532128818E0,-1.611266971E0,5.899205208E0,7.601399422E0,9.755925200E0
1.534634964E0,-1.616052628E0,5.913562298E0,7.687541008E0,9.832605550E0
1.537141057E0,-1.639980793E0,5.901597977E0,7.792825222E0,9.911938288E0
1.539647151E0,-1.654337764E0,5.872584820E0,7.864609718E0,9.953701418E0
1.542153245E0,-1.683051586E0,5.855835438E0,7.886145115E0,9.965678908E0
1.544659339E0,-1.709372640E0,5.846263885E0,7.862216949E0,9.945612681E0
1.547165432E0,-1.671087503E0,5.843871117E0,7.814360619E0,9.899878532E0
1.549671578E0,-1.654337764E0,5.855835438E0,7.795217991E0,9.889037650E0
1.552177672E0,-1.663909078E0,5.851049423E0,7.780860901E0,9.876495792E0
1.554683766E0,-1.692622900E0,5.855835438E0,7.742575645E0,9.854098568E0
1.557189859E0,-1.651944876E0,5.860620975E0,7.699504852E0,9.816219999E0
1.559695953E0,-1.616052628E0,5.827121258E0,7.610970497E0,9.720794214E0
1.562202099E0,-1.625623941E0,5.788836002E0,7.558029652E0,9.658006403E0
1.564708193E0,-1.659123421E0,5.748157978E0,7.524529934E0,9.613145239E0
1.567214286E0,-1.692622900E0,5.745765209E0,7.514958382E0,9.610067096E0
1.569720380E0,-1.714158297E0,5.743372440E0,7.507780075E0,9.606842734E0
1.572226474E0,-1.747657895E0,5.724229813E0,7.469494820E0,9.571544699E0
1.574732620E0,-1.764407635E0,5.719444275E0,7.407281399E0,9.523286976E0
1.577238714E0,-1.773978829E0,5.726622581E0,7.330711365E0,9.469980791E0
1.579744807E0,-1.783550143E0,5.736194134E0,7.292426109E0,9.447986707E0
1.582250901E0,-1.809871197E0,5.740979671E0,7.256533623E0,9.428242761E0
1.584756995E0,-1.821835399E0,5.731408596E0,7.223034382E0,9.398954963E0
1.587263089E0,-1.840977907E0,5.745765209E0,7.196712971E0,9.391256310E0
1.589769234E0,-1.862513304E0,5.745765209E0,7.191927433E0,9.391836553E0
1.592275328E0,-1.867298961E0,5.748157978E0,7.196712971E0,9.397914829E0
1.594781422E0,-1.898405671E0,5.743372440E0,7.223034382E0,9.421385077E0
1.597287516E0,-1.903191328E0,5.745765209E0,7.227819920E0,9.427477704E0
1.599793609E0,-1.922333837E0,5.752943993E0,7.225427151E0,9.433903194E0
1.602299755E0,-1.943869352E0,5.760122299E0,7.220641613E0,9.439030791E0
1.604805849E0,-1.965703845E0,5.745765209E0,7.234998226E0,9.445793179E0
1.607311943E0,-1.977667928E0,5.745765209E0,7.251748085E0,9.461122479E0
1.609818036E0,-1.977667928E0,5.760122299E0,7.256533623E0,9.473513580E0
1.612324130E0,-1.955833435E0,5.796014786E0,7.294818878E0,9.520160413E0
1.614830276E0,-1.929512382E0,5.829514027E0,7.340282440E0,9.570057373E0
1.617336370E0,-1.900798440E0,5.884549141E0,7.412067413E0,9.652963102E0
1.619842464E0,-1.860120535E0,5.937490463E0,7.481459141E0,9.730676867E0
1.622348557E0,-1.819442511E0,5.992525101E0,7.548458099E0,9.808157208E0
1.624854651E0,-1.809871197E0,6.004489422E0,7.615756035E0,9.865559637E0
1.627360797E0,-1.829013824E0,6.006882191E0,7.658827305E0,9.903815472E0
1.629866891E0,-1.848156333E0,5.997310638E0,7.685148239E0,9.921941351E0
1.632372984E0,-1.874477386E0,5.994917870E0,7.709076405E0,9.943971276E0
1.634879078E0,-1.903191328E0,5.982954025E0,7.704290867E0,9.938509640E0
1.637385172E0,-1.943869352E0,5.970989704E0,7.697112083E0,9.933623736E0
1.639891318E0,-1.946262121E0,5.970989704E0,7.697112083E0,9.934092244E0
1.642397411E0,-1.946262121E0,5.980561256E0,7.673183918E0,9.921330587E0
1.644903505E0,-1.922333837E0,6.002096653E0,7.651648521E0,9.913034687E0
1.647409599E0,-1.977667928E0,6.016453266E0,7.632505894E0,9.917864012E0
1.649915693E0,-2.047059774E0,6.009274960E0,7.596613884E0,9.900019281E0
1.652421786E0,-2.097309113E0,5.980561256E0,7.562815189E0,9.867218050E0
1.654927932E0,-2.121237278E0,5.985346794E0,7.476673603E0,9.809417516E0
1.657434026E0,-2.102094650E0,6.016453266E0,7.383353233E0,9.753482290E0
1.659940120E0,-2.128415823E0,5.975775242E0,7.285247803E0,9.659962692E0
1.662446214E0,-2.207378864E0,5.937490463E0,7.213462830E0,9.600018773E0
1.664952307E0,-2.276770830E0,5.911169052E0,7.175177574E0,9.571247473E0
1.667458453E0,-2.355733871E0,5.918347836E0,7.170392036E0,9.591185804E0
1.669964547E0,-2.372483730E0,5.920740604E0,7.163213730E0,9.591427386E0
1.672470641E0,-2.417947292E0,5.930311680E0,7.160820961E0,9.606894533E0
1.674976734E0,-2.425125837E0,5.925526142E0,7.175177574E0,9.616458215E0
1.677482828E0,-2.410768747E0,5.947061539E0,7.191927433E0,9.638628901E0
1.679988922E0,-2.343769789E0,5.949454308E0,7.213462830E0,9.639673717E0
1.682495068E0,-2.260020971E0,5.978168488E0,7.249355316E0,9.664333694E0
1.685001161E0,-2.166700840E0,5.978168488E0,7.278069019E0,9.664542392E0
1.687507255E0,-2.104487419E0,5.975775242E0,7.325925827E0,9.685450235E0
1.690013349E0,-2.018345833E0,5.990132332E0,7.337889671E0,9.685041563E0
1.692519443E0,-1.934298038E0,5.966204166E0,7.364210606E0,9.673091486E0
1.695025589E0,-1.848156333E0,5.959025860E0,7.371389389E0,9.657279770E0
1.697531682E0,-1.785943031E0,5.949454308E0,7.416852951E0,9.674466743E0
1.700037776E0,-1.726122379E0,5.961418629E0,7.469494820E0,9.711403781E0
1.702543870E0,-1.659123421E0,5.968596935E0,7.531708241E0,9.752100744E0
1.705050016E0,-1.616052628E0,5.968596935E0,7.587042332E0,9.787695685E0
1.707556109E0,-1.584945917E0,5.978168488E0,7.642077446E0,9.831169804E0
1.710062203E0,-1.532303810E0,5.994917870E0,7.685148239E0,9.866534279E0
1.712568297E0,-1.496411443E0,5.985346794E0,7.721040249E0,9.883222449E0
1.715074391E0,-1.443769336E0,5.992525101E0,7.752147198E0,9.904070535E0
1.717580484E0,-1.419841170E0,6.011667728E0,7.778468132E0,9.932807474E0
1.720086630E0,-1.371685624E0,6.035595894E0,7.802396297E0,9.959283470E0
1.722592724E0,-1.319043517E0,6.066702843E0,7.819146156E0,9.984177773E0
1.725098818E0,-1.261615753E0,6.097809315E0,7.785646915E0,9.969516068E0
1.727604911E0,-1.218544960E0,6.148058891E0,7.711469173E0,9.937315370E0
1.730111005E0,-1.149153113E0,6.193522453E0,7.658827305E0,9.916547229E0
1.732617151E0,-1.077368379E0,6.258128643E0,7.591827869E0,9.897512169E0
1.735123245E0,-1.015154958E0,6.308377743E0,7.574779034E0,9.909765221E0
1.737629339E0,-9.505487680E-1,6.317949295E0,7.637291908E0,9.957321625E0
1.740135432E0,-9.026923180E-1,6.344270229E0,7.740182877E0,1.004863419E1
1.742641526E0,-8.572286963E-1,6.353841305E0,7.838288784E0,1.012644614E1
1.745147672E0,-8.452646136E-1,6.298806667E0,7.900502205E0,1.013939706E1
1.747653766E0,-8.306085467E-1,6.255735874E0,7.943572998E0,1.014517096E1
1.750159859E0,-8.353942037E-1,6.171987057E0,7.957930088E0,1.010544205E1
1.752665953E0,-8.596215248E-1,6.093023777E0,7.955537319E0,1.005755745E1
1.755172047E0,-8.763712645E-1,6.023632050E0,7.945965767E0,1.000952255E1
1.757678193E0,-9.050851464E-1,5.966204166E0,7.941180229E0,9.973821470E0
1.760184286E0,-9.433703423E-1,5.920740604E0,7.931608677E0,9.942611986E0
1.762690380E0,-9.744769931E-1,5.894419670E0,7.919644833E0,9.920411430E0
1.765196474E0,-9.768698215E-1,5.877370834E0,7.888537884E0,9.885686244E0
1.767702568E0,-9.744769931E-1,5.879763603E0,7.878966808E0,9.879237997E0
1.770208661E0,-9.984052777E-1,5.894419670E0,7.900502205E0,9.907518934E0
1.772714807E0,-1.051047325E0,5.894419670E0,7.969893932E0,9.968354579E0
1.775220901E0,-1.106082320E0,5.889334679E0,8.075178146E0,1.005565429E1
1.777726995E0,-1.163509965E0,5.889334679E0,8.137690544E0,1.011236994E1
1.780233089E0,-1.249651670E0,5.860620975E0,8.190332413E0,1.014840148E1
1.782739234E0,-1.340578914E0,5.824728489E0,8.199904442E0,1.014707084E1
1.785245328E0,-1.393221021E0,5.776872158E0,8.173583031E0,1.010548249E1
1.787751422E0,-1.470090389E0,5.724229813E0,8.147261620E0,1.006508046E1
1.790257516E0,-1.563410521E0,5.669195175E0,8.123034477E0,1.002834560E1
1.792763609E0,-1.666301847E0,5.609374523E0,8.072785378E0,9.970531989E0
1.795269703E0,-1.769193292E0,5.587839127E0,8.010572433E0,9.925888460E0
1.797775849E0,-1.860120535E0,5.568696499E0,7.941180229E0,9.875868191E0
1.800281943E0,-1.968096614E0,5.547161102E0,7.847859859E0,9.809857540E0
1.802788036E0,-2.087737799E0,5.501697540E0,7.737790108E0,9.721148116E0
1.805294130E0,-2.188236237E0,5.456233978E0,7.606184959E0,9.613163719E0
1.807800224E0,-2.255235434E0,5.413163185E0,7.431210041E0,9.466324799E0
1.810306370E0,-2.298306227E0,5.427519798E0,7.232605457E0,9.330099912E0
1.812812464E0,-2.331805706E0,5.508875847E0,7.105785847E0,9.288553356E0
1.815318557E0,-2.362912416E0,5.611767292E0,7.045965195E0,9.312406389E0
1.817824651E0,-2.374876499E0,5.693123341E0,6.952346325E0,9.294450558E0
1.820330745E0,-2.338984251E0,5.705087185E0,6.837490559E0,9.207070340E0
1.822836891E0,-2.291127682E0,5.705087185E0,6.756134510E0,9.134694267E0
1.825342984E0,-2.255235434E0,5.697908878E0,6.746563435E0,9.114185132E0
1.827849078E0,-2.202593327E0,5.683551788E0,6.818347931E0,9.145711935E0
1.830355172E0,-2.176272154E0,5.676373482E0,6.928418159E0,9.217394132E0
1.832861266E0,-2.145165443E0,5.673980713E0,7.043572426E0,9.295574454E0
1.835367359E0,-2.116451740E0,5.652445316E0,7.103393078E0,9.321357157E0
1.837873505E0,-2.049452543E0,5.640480995E0,7.124928474E0,9.315572304E0
1.840379599E0,-1.996810555E0,5.626124382E0,7.127321243E0,9.297270355E0
1.842885693E0,-1.948654890E0,5.599802971E0,7.077072144E0,9.232551073E0
1.845391786E0,-1.896012783E0,5.575874805E0,7.017251492E0,9.161171476E0
1.847897932E0,-1.852941990E0,5.587839127E0,6.947560310E0,9.106367793E0
1.850404026E0,-1.807478428E0,5.595017433E0,6.878168583E0,9.048779000E0
1.852910120E0,-1.773978829E0,5.650052547E0,6.830312252E0,9.040091821E0
1.855416214E0,-1.747657895E0,5.683551788E0,6.784848690E0,9.021709416E0
1.857922307E0,-1.690230131E0,5.709873199E0,6.736992359E0,8.991473511E0
1.860428453E0,-1.661516190E0,5.764907837E0,6.725028038E0,9.012258348E0
1.862934547E0,-1.604088426E0,5.798407555E0,6.729813576E0,9.026905373E0
1.865440641E0,-1.544267893E0,5.803193092E0,6.715456963E0,9.008838749E0
1.867946734E0,-1.477268934E0,5.822335720E0,6.736992359E0,9.026016995E0
1.870452828E0,-1.407876968E0,5.843871117E0,6.760920525E0,9.046711752E0
1.872958974E0,-1.357328653E0,5.865406513E0,6.777669907E0,9.065436779E0
1.875465068E0,-1.323829174E0,5.877370834E0,6.806384087E0,9.089712643E0
1.877971161E0,-1.275972724E0,5.860620975E0,6.839883327E0,9.097196741E0
1.880477255E0,-1.223330617E0,5.831906796E0,6.868597507E0,9.093146122E0
1.882983349E0,-1.194616675E0,5.812764645E0,6.890132904E0,9.093364243E0
1.885489443E0,-1.163509965E0,5.812764645E0,6.904489517E0,9.100217786E0
1.887995589E0,-1.122832060E0,5.812764645E0,6.914061069E0,9.102374697E0
1.890501682E0,-1.074975610E0,5.784050465E0,6.904489517E0,9.070986045E0
1.893007776E0,-1.046261668E0,5.764907837E0,6.911668301E0,9.060904179E0
1.895513870E0,-1.010369420E0,5.762515068E0,6.887740135E0,9.037056514E0
1.898019964E0,-9.744769931E-1,5.762515068E0,6.866204739E0,9.016704100E0
1.900526109E0,-9.314061999E-1,5.764907837E0,6.847062111E0,8.999107702E0
1.903032203E0,-8.859425783E-1,5.755336761E0,6.808776855E0,8.959254308E0
1.905538297E0,-8.524430394E-1,5.767300606E0,6.780063152E0,8.941905376E0
1.908044391E0,-7.971090674E-1,5.760122299E0,6.763313293E0,8.919461782E0
1.910550484E0,-7.325028181E-1,5.740979671E0,6.756134510E0,8.896109345E0
1.913056630E0,-6.463612318E-1,5.736194134E0,6.727420807E0,8.864530258E0
1.915562724E0,-5.793621540E-1,5.740979671E0,6.727420807E0,8.862996040E0
1.918068818E0,-4.956133962E-1,5.760122299E0,6.744170666E0,8.883044495E0
1.920574911E0,-4.166502357E-1,5.757729530E0,6.777669907E0,8.902912789E0
1.923081005E0,-3.520440459E-1,5.760122299E0,6.823133945E0,8.936335980E0
1.925587151E0,-2.703889608E-1,5.767300606E0,6.878168583E0,8.980204314E0
1.928093245E0,-2.057827413E-1,5.752943993E0,6.930810928E0,9.009708721E0
1.930599339E0,-1.316052526E-1,5.752943993E0,6.976274490E0,9.043345083E0
1.933105432E0,-6.699903309E-2,5.717051506E0,7.022037029E0,9.055284139E0
1.935611526E0,-2.153540403E-2,5.693123341E0,7.045965195E0,9.058572883E0
1.938117672E0,4.067798331E-2,5.673980713E0,7.055536747E0,9.054077016E0
1.940623766E0,8.614161611E-2,5.654838085E0,7.060322285E0,9.046146412E0
1.943129859E0,1.172483116E-1,5.616552830E0,7.055536747E0,9.018869754E0
1.945635953E0,1.339980662E-1,5.575874805E0,7.048357964E0,8.988197000E0
1.948142047E0,1.746760458E-1,5.549553871E0,7.045965195E0,8.970712648E0
1.950648193E0,1.962114573E-1,5.537590027E0,7.022037029E0,8.944965415E0
1.953154286E0,2.321037948E-1,5.504090309E0,7.007380962E0,8.913600297E0
1.955660380E0,2.632105052E-1,5.484947681E0,6.997809887E0,8.895126421E0
1.958166474E0,3.065803945E-1,5.456233978E0,6.966702938E0,8.854345294E0
1.960672620E0,3.281157911E-1,5.449055195E0,6.930810928E0,8.822471457E0
1.963178714E0,3.544368446E-1,5.425127029E0,6.897311211E0,8.782398915E0
1.965684807E0,3.879363835E-1,5.408377171E0,6.859025955E0,8.743413253E0
1.968190901E0,4.070789516E-1,5.408377171E0,6.835097790E0,8.725526843E0
1.970696995E0,4.357928336E-1,5.417948723E0,6.782455921E0,8.691708237E0
1.973203089E0,4.286143482E-1,5.446662426E0,6.753741741E0,8.686936707E0
1.975709234E0,4.286143482E-1,5.492125988E0,6.725028038E0,8.693282478E0
1.978215328E0,4.310071766E-1,5.532804012E0,6.703492641E0,8.702557154E0
1.980721422E0,3.999004960E-1,5.575874805E0,6.684350014E0,8.713830120E0
1.983227516E0,3.903291821E-1,5.635695457E0,6.643671989E0,8.720768181E0
1.985733609E0,3.448655605E-1,5.719444275E0,6.595815659E0,8.737033780E0
1.988239755E0,2.826521695E-1,5.786443233E0,6.555137634E0,8.748293945E0
1.990745849E0,2.297109663E-1,5.872584820E0,6.504888535E0,8.766618187E0
1.993251943E0,1.674975902E-1,5.961418629E0,6.459424496E0,8.791514791E0
1.995758036E0,7.657032460E-2,6.035595894E0,6.432804585E0,8.821295576E0
1.998264130E0,-2.153540403E-2,6.119344711E0,6.411269188E0,8.862912392E0
2.000770276E0,-1.268195957E-1,6.203093529E0,6.392126560E0,8.908071312E0
2.003276370E0,-2.057827413E-1,6.284449577E0,6.370591164E0,8.951038197E0
2.005782464E0,-3.305086195E-1,6.361020088E0,6.344270229E0,8.990082161E0
2.008288557E0,-4.357928336E-1,6.428019047E0,6.289235115E0,9.003545001E0
2.010794651E0,-5.434698462E-1,6.509674072E0,6.246164322E0,9.038018850E0
2.013300797E0,-6.655037999E-1,6.547959328E0,6.181558132E0,9.029414577E0
2.015806891E0,-7.660023570E-1,6.622136593E0,6.124130249E0,9.052315945E0
2.018312984E0,-8.620143533E-1,6.672386169E0,6.018846035E0,9.027198543E0
2.020819078E0,-9.433703423E-1,6.727420807E0,5.937490463E0,9.022301886E0
2.023325172E0,-1.005583763E0,6.770491600E0,5.863013744E0,9.012529355E0
2.025831318E0,-1.072582722E0,6.799205780E0,5.781657696E0,8.989282432E0
2.028337411E0,-1.115653515E0,6.832705021E0,5.700301647E0,8.967941767E0
2.030843505E0,-1.141974568E0,6.868597507E0,5.642873764E0,8.962352479E0
2.033349599E0,-1.165902853E0,6.904489517E0,5.568696499E0,8.946601905E0
2.035855693E0,-1.177866936E0,6.926024914E0,5.489733219E0,8.915961106E0
2.038361839E0,-1.199402332E0,6.942774773E0,5.441876888E0,8.902511531E0
2.040867932E0,-1.175474167E0,6.983452797E0,5.396413326E0,8.903461645E0
2.043374026E0,-1.141974568E0,6.995417118E0,5.358128071E0,8.885353285E0
2.045880120E0,-1.132403374E0,7.007380962E0,5.334199905E0,8.879156153E0
2.048386214E0,-1.096511006E0,7.024429798E0,5.309972763E0,8.873599107E0
2.050892359E0,-1.053440213E0,7.043572426E0,5.305186749E0,8.880690020E0
2.053398453E0,-1.010369420E0,7.060322285E0,5.314758301E0,8.894698023E0
2.055904547E0,-9.529415965E-1,7.081857681E0,5.319543839E0,8.908330514E0
2.058410641E0,-8.979067206E-1,7.091429234E0,5.360520840E0,8.934751744E0
2.060916734E0,-8.330013752E-1,7.127321243E0,5.391627789E0,8.975647587E0
2.063422880E0,-7.923234105E-1,7.158428192E0,5.444269657E0,9.028341081E0
2.065928974E0,-7.731808424E-1,7.177570820E0,5.506483078E0,9.079465148E0
2.068435068E0,-7.085745931E-1,7.184749126E0,5.566303730E0,9.116273097E0
2.070941161E0,-6.702894568E-1,7.203891754E0,5.618945599E0,9.160671045E0
2.073447255E0,-6.583253145E-1,7.206284523E0,5.688337803E0,9.204407412E0
2.075953401E0,-6.439684033E-1,7.230212688E0,5.757729530E0,9.265102275E0
2.078459495E0,-6.296114326E-1,7.249355316E0,5.831906796E0,9.325272110E0
2.080965589E0,-6.320042610E-1,7.273283482E0,5.901597977E0,9.387701565E0
2.083471682E0,-6.439684033E-1,7.299604416E0,5.968596935E0,9.451088261E0
2.085977776E0,-6.559324861E-1,7.330711365E0,6.040381432E0,9.521333120E0
2.088483922E0,-6.774678826E-1,7.354639530E0,6.093023777E0,9.574686632E0
2.090990016E0,-6.846463680E-1,7.378567696E0,6.121737480E0,9.611850585E0
2.093496109E0,-7.133602500E-1,7.397710323E0,6.160022736E0,9.653024447E0
2.096002203E0,-7.636095285E-1,7.426424026E0,6.176772594E0,9.689550713E0
2.098508297E0,-7.875377536E-1,7.459923744E0,6.169594288E0,9.712598605E0
2.101014443E0,-8.066803217E-1,7.498209000E0,6.148058891E0,9.729979418E0
2.103520536E0,-8.401798606E-1,7.524529934E0,6.152844429E0,9.756123589E0
2.106026630E0,-8.668000102E-1,7.582256794E0,6.162415504E0,9.809043032E0
2.108532724E0,-9.002995491E-1,7.646862984E0,6.169594288E0,9.866556970E0
2.111038818E0,-9.457631707E-1,7.711469173E0,6.181558132E0,9.928387872E0
2.113544964E0,-1.000798106E0,7.776075363E0,6.181558132E0,9.984017520E0
2.116051057E0,-1.053440213E0,7.833503246E0,6.164808273E0,1.002388999E1
2.118557151E0,-1.084546804E0,7.898109436E0,6.133701801E0,1.005876097E1
2.121063245E0,-1.113260746E0,7.941180229E0,6.085845470E0,1.006673770E1
2.123569391E0,-1.151545882E0,7.986643791E0,6.040381432E0,1.007962027E1
2.126075484E0,-1.185045362E0,8.041678429E0,5.968596935E0,1.008449671E1
2.128581578E0,-1.242473125E0,8.056035995E0,5.884549141E0,1.005342598E1
2.131087672E0,-1.254437327E0,8.087141991E0,5.817550182E0,1.004088486E1
2.133593766E0,-1.275972724E0,8.120641708E0,5.731408596E0,1.002107642E1
2.136099911E0,-1.273579836E0,8.152048111E0,5.654838085E0,1.000275401E1
2.138606005E0,-1.278365493E0,8.190332413E0,5.587839127E0,9.996985019E0
2.141112099E0,-1.264008522E0,8.216653824E0,5.496912003E0,9.966301178E0
2.143618193E0,-1.242473125E0,8.254939079E0,5.417948723E0,9.951981061E0
2.146124286E0,-1.218544960E0,8.276473999E0,5.353342533E0,9.931925793E0
2.148630380E0,-1.170688510E0,8.300402641E0,5.300401211E0,9.917734045E0
2.151136526E0,-1.144367456E0,8.319544792E0,5.240580559E0,9.898893222E0
2.153642620E0,-1.120439172E0,8.321938515E0,5.192724228E0,9.872913931E0
2.156148714E0,-1.089332461E0,8.348258972E0,5.149653435E0,9.869093351E0
2.158654807E0,-1.048654556E0,8.372187614E0,5.116153717E0,9.867534175E0
2.161160901E0,-1.024726272E0,8.374580383E0,5.075475693E0,9.846020213E0
2.163667047E0,-9.960124493E-1,8.376973152E0,5.044369221E0,9.829108852E0
2.166173141E0,-9.505487680E-1,8.384151459E0,5.027619362E0,9.822143101E0
2.168679234E0,-9.242277741E-1,8.400900841E0,5.013262749E0,9.826603447E0
2.171185328E0,-9.314061999E-1,8.396115303E0,5.003691196E0,9.818309186E0
2.173691474E0,-8.979067206E-1,8.396115303E0,5.001298428E0,9.813968342E0
2.176197568E0,-8.811569214E-1,8.393722534E0,5.015655518E0,9.817729665E0
2.178703661E0,-8.763712645E-1,8.398508072E0,5.020441055E0,9.823837988E0
2.181209755E0,-8.859425783E-1,8.398508072E0,5.022833824E0,9.825919382E0
2.183715849E0,-8.787640929E-1,8.388936996E0,5.025226593E0,9.818319234E0
2.186221995E0,-8.763712645E-1,8.388936996E0,5.027619362E0,9.819330271E0
2.188728089E0,-8.859425783E-1,8.386544228E0,5.032404900E0,9.820596591E0
2.191234182E0,-8.955138922E-1,8.386544228E0,5.039583683E0,9.825144931E0
2.193740276E0,-9.242277741E-1,8.388936996E0,5.030012131E0,9.824941880E0
2.196246370E0,-9.314061999E-1,8.388936996E0,5.027619362E0,9.824395039E0
2.198752516E0,-9.553344250E-1,8.391329765E0,4.991727352E0,9.810424102E0
2.201258609E0,-9.744769931E-1,8.379365921E0,4.970191956E0,9.791127960E0
2.203764703E0,-9.768698215E-1,8.374580383E0,4.941477776E0,9.772720903E0
2.206270797E0,-9.792626500E-1,8.376973152E0,4.915156841E0,9.761731471E0
2.208776891E0,-9.936196208E-1,8.376973152E0,4.886443138E0,9.748758161E0
2.211283036E0,-9.960124493E-1,8.367402077E0,4.862514496E0,9.728797744E0
2.213789130E0,-1.017547846E0,8.386544228E0,4.864907742E0,9.748684785E0
2.216295224E0,-1.041476011E0,8.388936996E0,4.876871586E0,9.759242423E0
2.218801318E0,-1.060618639E0,8.424829483E0,4.884049892E0,9.795744335E0
2.221307411E0,-1.074975610E0,8.451150894E0,4.922335148E0,9.839050122E0
2.223813557E0,-1.096511006E0,8.463114738E0,4.953442097E0,9.867281088E0
2.226319651E0,-1.113260746E0,8.501399994E0,4.972584724E0,9.911596753E0
2.228825745E0,-1.134796143E0,8.525327682E0,5.008476734E0,9.952578238E0
2.231331839E0,-1.163509965E0,8.532505989E0,5.027619362E0,9.971678411E0
2.233837932E0,-1.192223907E0,8.566005707E0,5.020441055E0,1.000013400E1
2.236344078E0,-1.230509043E0,8.592327118E0,5.037190914E0,1.003571274E1
2.238850172E0,-1.256830096E0,8.609076500E0,5.022833824E0,1.004612760E1
2.241356266E0,-1.287936807E0,8.635397911E0,5.020441055E0,1.007143022E1
2.243862359E0,-1.309472203E0,8.649754524E0,5.015655518E0,1.008413462E1
2.246368453E0,-1.342971683E0,8.678468704E0,4.996512890E0,1.010368908E1
2.248874599E0,-1.374078393E0,8.726624489E0,4.984548569E0,1.014336191E1
2.251380693E0,-1.400399446E0,8.764909744E0,4.939085007E0,1.015772229E1
2.253886786E0,-1.419841170E0,8.767302513E0,4.905585289E0,1.014624607E1
2.256392880E0,-1.458126307E0,8.805587769E0,4.869693279E0,1.016751793E1
2.258899026E0,-1.505982757E0,8.788837433E0,4.850550652E0,1.015083687E1
2.261405120E0,-1.527518153E0,8.786444664E0,4.857728958E0,1.015541492E1
2.263911214E0,-1.517946839E0,8.851051331E0,4.845765114E0,1.020424969E1
2.266417307E0,-1.513161182E0,8.870193481E0,4.795515537E0,1.019641890E1
2.268923401E0,-1.501197100E0,8.910871506E0,4.680361271E0,1.017659105E1
2.271429547E0,-1.513161182E0,8.977870941E0,4.565505505E0,1.018507064E1
2.273935641E0,-1.525125384E0,9.023334503E0,4.450650215E0,1.017619086E1
2.276441734E0,-1.568196177E0,9.018548965E0,4.383651257E0,1.014937747E1
2.278947828E0,-1.608874083E0,9.037691116E0,4.292723656E0,1.013389426E1
2.281453922E0,-1.639980793E0,9.052047729E0,4.160819530E0,1.009660954E1
2.283960068E0,-1.675873160E0,9.064012527E0,4.007678986E0,1.005118723E1
2.286466161E0,-1.718943954E0,9.085547447E0,3.888037682E0,1.003089117E1
2.288972255E0,-1.793121457E0,9.099904060E0,3.804288864E0,1.002477692E1
2.291478349E0,-1.824228168E0,9.116654396E0,3.722932816E0,1.001505989E1
2.293984443E0,-1.862513304E0,9.145368576E0,3.617349625E0,1.000959242E1
2.296490589E0,-1.886441588E0,9.166903496E0,3.559921980E0,1.001318261E1
2.298996682E0,-1.936690807E0,9.162117958E0,3.519243956E0,1.000401193E1
2.301502776E0,-2.001596212E0,9.169296265E0,3.437887907E0,9.995071518E0
2.304008870E0,-2.059023857E0,9.212367058E0,3.339782238E0,1.001306304E1
2.306514964E0,-2.068595171E0,9.250652313E0,3.246462107E0,1.001963924E1
2.309021109E0,-2.073380709E0,9.262915611E0,3.141177893E0,9.998375455E0
2.311527203E0,-2.066202402E0,9.260522842E0,3.028416157E0,9.959808236E0
2.314033297E0,-2.063809633E0,9.279664993E0,2.954238653E0,9.954849000E0
2.316539391E0,-2.104487419E0,9.346664429E0,2.944667339E0,1.002297705E1
2.319045484E0,-2.109273195E0,9.425627708E0,3.028416157E0,1.012239080E1
2.321551630E0,-2.176272154E0,9.483055115E0,3.131606579E0,1.022112785E1
2.324057724E0,-2.243271112E0,9.521340370E0,3.248854876E0,1.030743643E1
2.326563818E0,-2.334198475E0,9.535696983E0,3.385245800E0,1.038450233E1
2.329069911E0,-2.405983210E0,9.554840088E0,3.512065411E0,1.046032159E1
2.331576005E0,-2.496910334E0,9.533304214E0,3.600599766E0,1.049203360E1
2.334082151E0,-2.576172590E0,9.461520195E0,3.667897940E0,1.046950357E1
2.336588245E0,-2.650350094E0,9.408877373E0,3.756432533E0,1.047196803E1
2.339094339E0,-2.722134829E0,9.344271660E0,3.833002806E0,1.046027444E1
2.341600432E0,-2.789133787E0,9.305986404E0,3.861716747E0,1.045435347E1
2.344106578E0,-2.844168901E0,9.226723671E0,3.866502285E0,1.040055606E1
2.346612672E0,-2.875275612E0,9.164510727E0,3.888037682E0,1.036206079E1
2.349118766E0,-2.906382322E0,9.150154114E0,3.895216227E0,1.036074746E1
2.351624859E0,-2.901596546E0,9.157332420E0,3.840181351E0,1.034519175E1
2.354130953E0,-2.911167860E0,9.178867340E0,3.792324781E0,1.034931066E1
2.356637099E0,-2.899203777E0,9.229117393E0,3.727718592E0,1.036715372E1
2.359143193E0,-2.892025232E0,9.298808098E0,3.663112402E0,1.040432768E1
2.361649286E0,-2.892025232E0,9.353842735E0,3.602992773E0,1.043262866E1
2.364155380E0,-2.901596546E0,9.420842171E0,3.555136204E0,1.047905163E1
2.366661474E0,-2.908775091E0,9.487840652E0,3.507279873E0,1.052526032E1
2.369167620E0,-2.894418001E0,9.550054550E0,3.476173162E0,1.056716506E1
2.371673714E0,-2.901596546E0,9.614660263E0,3.466601849E0,1.062441918E1
2.374179807E0,-2.932703257E0,9.664909363E0,3.437887907E0,1.066912811E1
2.376685901E0,-2.961417198E0,9.717552185E0,3.409173965E0,1.071556249E1
2.379191995E0,-2.990130901E0,9.739087105E0,3.373281717E0,1.073171608E1
2.381698141E0,-3.011666298E0,9.767801285E0,3.318246841E0,1.074666636E1
2.384204234E0,-3.047558784E0,9.767801285E0,3.248854876E0,1.073557704E1
2.386710328E0,-3.073879719E0,9.767801285E0,3.153141975E0,1.071452205E1
2.389216422E0,-3.110071182E0,9.772586823E0,3.049951553E0,1.069944860E1
2.391722516E0,-3.138785124E0,9.772586823E0,2.942274570E0,1.067765915E1
2.394228661E0,-3.179463148E0,9.777372360E0,2.827419043E0,1.066303403E1
2.396734755E0,-3.200998545E0,9.784550667E0,2.722134829E0,1.064865444E1
2.399240849E0,-3.236890793E0,9.798908234E0,2.621636391E0,1.064748994E1
2.401746943E0,-3.256033421E0,9.796515465E0,2.520838737E0,1.062676323E1
2.404253089E0,-3.282354355E0,9.806086540E0,2.441875458E0,1.062525007E1
2.406759182E0,-3.315854073E0,9.827920914E0,2.367697954E0,1.063902774E1
2.409265276E0,-3.349353552E0,9.842277527E0,2.319841623E0,1.065224208E1
2.411771370E0,-3.373281717E0,9.878170013E0,2.288734913E0,1.068623319E1
2.414277464E0,-3.375674486E0,9.906884193E0,2.288734913E0,1.071353537E1
2.416783609E0,-3.428316593E0,9.937990189E0,2.303091764E0,1.076202747E1
2.419289703E0,-3.437887907E0,9.961918831E0,2.336591244E0,1.079437625E1
2.421795797E0,-3.442673683E0,9.993025780E0,2.382055044E0,1.083451672E1
2.424301891E0,-3.437887907E0,1.000977516E1,2.429911375E0,1.085905803E1
2.426807984E0,-3.442673683E0,1.000020409E1,2.501696110E0,1.086805260E1
2.429314130E0,-3.440280676E0,1.001216793E1,2.542673111E0,1.088780163E1
2.431820224E0,-3.413959742E0,1.001456070E1,2.585743904E0,1.089186020E1
2.434326318E0,-3.387638569E0,1.001695347E1,2.647957325E0,1.090078574E1
2.436832411E0,-3.349353552E0,1.000738239E1,2.698206663E0,1.089248322E1
2.439338505E0,-3.308675528E0,1.001216793E1,2.753241539E0,1.089821909E1
2.441844651E0,-3.267997503E0,1.000738239E1,2.810669184E0,1.089620903E1
2.444350745E0,-3.224926710E0,1.003370380E1,2.863311291E0,1.092125981E1
2.446856839E0,-3.205784082E0,1.004566765E1,2.915953398E0,1.094053355E1
2.449362932E0,-3.172284603E0,1.003848934E1,2.961417198E0,1.093639107E1
2.451869078E0,-3.141177893E0,1.004566765E1,3.006880760E0,1.094640438E1
2.454375172E0,-3.122035265E0,1.005284595E1,3.057130098E0,1.096142602E1
2.456881266E0,-3.088535786E0,1.004806042E1,3.090928555E0,1.095702564E1
2.459387359E0,-3.066701412E0,1.004088211E1,3.105285645E0,1.094836837E1
2.461893453E0,-3.021237612E0,1.001695347E1,3.119642496E0,1.091784790E1
2.464399599E0,-2.999702215E0,1.000259686E1,3.131606579E0,1.090216112E1
2.466905693E0,-2.982952595E0,1.001216793E1,3.119642496E0,1.090292081E1
2.469411786E0,-2.975774050E0,1.000738239E1,3.107678413E0,1.089314457E1
2.471917880E0,-2.975774050E0,9.978668213E0,3.069094181E0,1.085579981E1
2.474423974E0,-2.932703257E0,9.947562218E0,3.026023388E0,1.080331246E1
2.476930120E0,-2.937488794E0,9.921240807E0,2.997309446E0,1.077235923E1
2.479436214E0,-2.920739174E0,9.885348320E0,2.973381281E0,1.072808580E1
2.481942307E0,-2.918346405E0,9.847063065E0,2.942274570E0,1.068355635E1
2.484448401E0,-2.918346405E0,9.808479309E0,2.918346405E0,1.064141710E1
2.486954547E0,-2.930310488E0,9.770194054E0,2.903989315E0,1.060549694E1
2.489460641E0,-2.930310488E0,9.724730492E0,2.887239695E0,1.055903669E1
2.491966734E0,-2.918346405E0,9.688838005E0,2.903989315E0,1.052727323E1
2.494472828E0,-2.937488794E0,9.652945518E0,2.913560629E0,1.050223943E1
2.496978922E0,-2.963809967E0,9.631410599E0,2.901596546E0,1.048653909E1
2.499485016E0,-2.968595505E0,9.612267494E0,2.892025232E0,1.046766715E1
2.501991161E0,-2.975774050E0,9.614660263E0,2.884846687E0,1.046992185E1
2.504497255E0,-2.985345364E0,9.597910881E0,2.870489836E0,1.045331967E1
2.507003349E0,-3.011666298E0,9.590732574E0,2.860918522E0,1.045165728E1
2.509509443E0,-3.026023388E0,9.581160545E0,2.844168901E0,1.044244951E1
2.512015536E0,-3.045166016E0,9.583553314E0,2.822633505E0,1.044436643E1
2.514521682E0,-3.069094181E0,9.583553314E0,2.786741018E0,1.044173160E1
2.517027776E0,-3.107678413E0,9.585947037E0,2.760420084E0,1.044834747E1
2.519533870E0,-3.138785124E0,9.600303650E0,2.746062994E0,1.046702748E1
2.522039964E0,-3.153141975E0,9.600303650E0,2.710170746E0,1.046198643E1
2.524546109E0,-3.165106058E0,9.621838570E0,2.674278498E0,1.047613666E1
2.527052203E0,-3.200998545E0,9.643374443E0,2.628814697E0,1.049531939E1
2.529558297E0,-3.220141172E0,9.645767212E0,2.578565598E0,1.049090724E1
2.532064391E0,-3.220141172E0,9.648159981E0,2.537887573E0,1.048318528E1
2.534570484E0,-3.229712248E0,9.648159981E0,2.494517565E0,1.047571716E1
2.537076630E0,-3.253640652E0,9.652945518E0,2.453839540E0,1.047792265E1
2.539582724E0,-3.275176048E0,9.660123825E0,2.417947292E0,1.048290225E1
2.542088818E0,-3.296711445E0,9.669695854E0,2.374876499E0,1.048863016E1
2.544594911E0,-3.320639610E0,9.664909363E0,2.338984251E0,1.048370010E1
2.547101005E0,-3.244069338E0,9.662516594E0,2.293520451E0,1.044741350E1
2.549607151E0,-3.198605776E0,9.691230774E0,2.221735716E0,1.044447904E1
2.552113245E0,-3.227319479E0,9.698409081E0,2.195414782E0,1.045440461E1
2.554619339E0,-3.265604734E0,9.707980156E0,2.204986095E0,1.047716644E1
2.557125432E0,-3.303889751E0,9.705587387E0,2.176272154E0,1.048094817E1
2.559631578E0,-3.330210924E0,9.686445236E0,2.116451740E0,1.045929702E1
2.562137672E0,-3.351746321E0,9.672088623E0,2.068595171E0,1.044330349E1
2.564643766E0,-3.385245800E0,9.655338287E0,2.023131609E0,1.042969358E1
2.567149859E0,-3.409173965E0,9.643374443E0,1.977667928E0,1.041769208E1
2.569655953E0,-3.411566973E0,9.626625061E0,1.943869352E0,1.039660172E1
2.572162099E0,-3.430709362E0,9.602696419E0,1.919941068E0,1.037630565E1
2.574668193E0,-3.445066452E0,9.564411163E0,1.903191328E0,1.034256163E1
2.577174286E0,-3.464209080E0,9.516554832E0,1.886441588E0,1.030166114E1
2.579680380E0,-3.502494097E0,9.468698502E0,1.874477386E0,1.026827063E1
2.582186526E0,-3.519243956E0,9.411270142E0,1.848156333E0,1.021629901E1
2.584692620E0,-3.524029493E0,9.363413811E0,1.857727647E0,1.017563040E1
2.587198714E0,-3.516851187E0,9.334700584E0,1.867298961E0,1.014848179E1
2.589704807E0,-3.495315790E0,9.298808098E0,1.886441588E0,1.011156399E1
2.592210901E0,-3.485744476E0,9.253045082E0,1.896012783E0,1.006797509E1
2.594717047E0,-3.464209080E0,9.200403214E0,1.903191328E0,1.001350593E1
2.597223141E0,-3.445066452E0,9.169296265E0,1.915155411E0,9.980596029E0
2.599729234E0,-3.406781197E0,9.142974854E0,1.970489502E0,9.954043207E0
2.602235328E0,-3.401995659E0,9.107083321E0,2.001596212E0,9.925670177E0
2.604741422E0,-3.366103172E0,9.087940216E0,2.039881229E0,9.903657070E0
2.607247568E0,-3.354139090E0,9.078369141E0,2.080559254E0,9.899280888E0
2.609753661E0,-3.358924866E0,9.066405296E0,2.114058733E0,9.897036202E0
2.612259755E0,-3.346960783E0,9.073583603E0,2.133201361E0,9.903666691E0
2.614765849E0,-3.339782238E0,9.080761909E0,2.161915302E0,9.914043576E0
2.617271943E0,-3.339782238E0,9.085547447E0,2.188236237E0,9.924197481E0
2.619778089E0,-3.351746321E0,9.102297783E0,2.212164640E0,9.948854242E0
2.622284182E0,-3.370888948E0,9.121439934E0,2.228914261E0,9.976553390E0
2.624790276E0,-3.380460262E0,9.138189316E0,2.240878344E0,9.997777318E0
2.627296370E0,-3.404388428E0,9.176474571E0,2.269592285E0,1.004731781E1
2.629802464E0,-3.428316593E0,9.200403214E0,2.267199516E0,1.007675382E1
2.632308609E0,-3.442673683E0,9.231510162E0,2.248056889E0,1.010576775E1
2.634814703E0,-3.440280676E0,9.253045082E0,2.238485575E0,1.012250918E1
2.637320797E0,-3.449851990E0,9.277272224E0,2.209771633E0,1.014161473E1
2.639826891E0,-3.449851990E0,9.296415329E0,2.173879385E0,1.015138258E1
2.642333036E0,-3.461816072E0,9.310771942E0,2.133201361E0,1.015997996E1
2.644839130E0,-3.468994617E0,9.325128555E0,2.075773716E0,1.016369926E1
2.647345224E0,-3.466601849E0,9.310771942E0,2.018345833E0,1.013812223E1
2.649851318E0,-3.497708559E0,9.305986404E0,1.943869352E0,1.012985568E1
2.652357411E0,-3.497708559E0,9.282057762E0,1.869691849E0,1.009387483E1
2.654863557E0,-3.502494097E0,9.248259544E0,1.807478428E0,1.005309643E1
2.657369651E0,-3.507279873E0,9.221938133E0,1.757229090E0,1.002162707E1
2.659875745E0,-3.516851187E0,9.205188751E0,1.709372640E0,1.000128477E1
2.662381839E0,-3.524029493E0,9.166903496E0,1.675873160E0,9.962903915E0
2.664887984E0,-3.509672642E0,9.138189316E0,1.656730533E0,9.928195308E0
2.667394078E0,-3.507279873E0,9.119047165E0,1.630409479E0,9.905365635E0
2.669900172E0,-3.497708559E0,9.119047165E0,1.620838284E0,9.900409239E0
2.672406266E0,-3.468994617E0,9.114261627E0,1.604088426E0,9.883156800E0
2.674912359E0,-3.387638569E0,9.123832703E0,1.587338686E0,9.861037591E0
2.677418505E0,-3.394817114E0,9.123832703E0,1.575374603E0,9.861587680E0
2.679924599E0,-3.418745279E0,9.107083321E0,1.584945917E0,9.855903787E0
2.682430693E0,-3.452244759E0,9.099904060E0,1.611266971E0,9.865213076E0
2.684936786E0,-3.476173162E0,9.083154678E0,1.611266971E0,9.858177317E0
2.687442880E0,-3.480958700E0,9.054440498E0,1.613659739E0,9.833812280E0
2.689949026E0,-3.512065411E0,9.035298347E0,1.620838284E0,9.828445270E0
2.692455120E0,-3.516851187E0,9.028120041E0,1.630409479E0,9.825142687E0
2.694961214E0,-3.514458179E0,9.025727272E0,1.654337764E0,9.826087854E0
2.697467307E0,-3.531208038E0,9.023334503E0,1.685444474E0,9.835177621E0
2.699973453E0,-3.516851187E0,9.030512810E0,1.711765528E0,9.841165840E0
2.702479547E0,-3.504886866E0,9.020941734E0,1.754836321E0,9.835703952E0
2.704985641E0,-3.485744476E0,9.042476654E0,1.793121457E0,9.855561027E0
2.707491734E0,-3.473780155E0,9.042476654E0,1.824228168E0,9.857045248E0
2.709997828E0,-3.459423304E0,9.056833267E0,1.850549221E0,9.870074511E0
2.712503974E0,-3.473780155E0,9.078369141E0,1.884048700E0,9.901190551E0
2.715010068E0,-3.464209080E0,9.099904060E0,1.917548299E0,9.924010779E0
2.717516161E0,-3.440280676E0,9.104690552E0,1.931905150E0,9.922861416E0
2.720022255E0,-3.454637766E0,9.121439934E0,1.946262121E0,9.946010497E0
2.722528401E0,-3.461816072E0,9.128618240E0,1.946262121E0,9.955088033E0
2.725034495E0,-3.442673683E0,9.133403778E0,1.972882271E0,9.958078686E0
2.727540589E0,-3.452244759E0,9.140582085E0,1.992024899E0,9.971780078E0
2.730046682E0,-3.464209080E0,9.142974854E0,2.006381750E0,9.980997017E0
2.732552776E0,-3.473780155E0,9.166903496E0,2.006381750E0,1.000623985E1
2.735058922E0,-3.485744476E0,9.188439369E0,2.011167526E0,1.003108306E1
2.737565016E0,-3.480958700E0,9.200403214E0,1.999203324E0,1.003799316E1
2.740071109E0,-3.464209080E0,9.226723671E0,1.980060697E0,1.005255264E1
2.742577203E0,-3.476173162E0,9.226723671E0,1.941476464E0,1.004915620E1
2.745083297E0,-3.478565931E0,9.238688469E0,1.893620014E0,1.005184472E1
2.747589443E0,-3.485744476E0,9.255437851E0,1.838585138E0,1.005951985E1
2.750095536E0,-3.466601849E0,9.265308380E0,1.781157374E0,1.005165605E1
2.752601630E0,-3.459423304E0,9.272486687E0,1.752443433E0,1.005075504E1
2.755107724E0,-3.478565931E0,9.274879456E0,1.716551185E0,1.005337544E1
2.757613870E0,-3.476173162E0,9.301200867E0,1.687837243E0,1.007198650E1
2.760119964E0,-3.488137245E0,9.322735786E0,1.661516190E0,1.009163713E1
2.762626057E0,-3.488137245E0,9.356235504E0,1.656730533E0,1.012180815E1
2.765132151E0,-3.464209080E0,9.384949684E0,1.644766450E0,1.013820900E1
2.767638245E0,-3.454637766E0,9.420842171E0,1.628016710E0,1.016549201E1
2.770144391E0,-3.442673683E0,9.444769859E0,1.601695657E0,1.017944541E1
2.772650484E0,-3.430709362E0,9.449555397E0,1.594517231E0,1.017872041E1
2.775156578E0,-3.428316593E0,9.475876808E0,1.613659739E0,1.020536593E1
2.777662672E0,-3.425923824E0,9.473484039E0,1.623231053E0,1.020385873E1
2.780168766E0,-3.409173965E0,9.480662346E0,1.623231053E0,1.020491571E1
2.782674911E0,-3.397209883E0,9.483055115E0,1.659123421E0,1.020892060E1
2.785181005E0,-3.378067255E0,9.461520195E0,1.668694735E0,1.018411729E1
2.787687099E0,-3.358924866E0,9.478269577E0,1.683051586E0,1.019571641E1
2.790193193E0,-3.346960783E0,9.463912964E0,1.714158297E0,1.018362086E1
2.792699339E0,-3.342175007E0,9.451948166E0,1.728515267E0,1.017335849E1
2.795205432E0,-3.323032379E0,9.423234940E0,1.726122379E0,1.013999011E1
2.797711526E0,-3.299104214E0,9.394520760E0,1.728515267E0,1.010588314E1
2.800217620E0,-3.279961586E0,9.368199348E0,1.733300924E0,1.007599321E1
2.802723714E0,-3.263211966E0,9.337093353E0,1.759621978E0,1.004619998E1
2.805229859E0,-3.234498024E0,9.317950249E0,1.764407635E0,1.001994554E1
2.807735953E0,-3.224926710E0,9.308379173E0,1.771586061E0,1.000922536E1
2.810242047E0,-3.208176851E0,9.282057762E0,1.821835399E0,9.988397230E0
2.812748141E0,-3.189034462E0,9.267701149E0,1.840977907E0,9.972433256E0
2.815254234E0,-3.167499065E0,9.245866776E0,1.864906192E0,9.949722502E0
2.817760380E0,-3.167499065E0,9.250652313E0,1.867298961E0,9.954618223E0
2.820266474E0,-3.150749207E0,9.248259544E0,1.876870275E0,9.948877685E0
2.822772568E0,-3.124428272E0,9.243474007E0,1.896012783E0,9.939754937E0
2.825278661E0,-3.102892876E0,9.245866776E0,1.874477386E0,9.931146062E0
2.827784807E0,-3.107678413E0,9.233902931E0,1.876870275E0,9.921959005E0
2.830290901E0,-3.110071182E0,9.229117393E0,1.874477386E0,9.917802987E0
2.832796995E0,-3.088535786E0,9.226723671E0,1.876870275E0,9.909294880E0
2.835303089E0,-3.083451033E0,9.217152596E0,1.869691849E0,9.897440065E0
2.837809182E0,-3.069094181E0,9.198010445E0,1.857727647E0,9.872886470E0
2.840315328E0,-3.064308405E0,9.183652878E0,1.857727647E0,9.858023037E0
2.842821422E0,-3.078665495E0,9.178867340E0,1.855334878E0,9.857588670E0
2.845327516E0,-3.071486950E0,9.188439369E0,1.855334878E0,9.864264678E0
2.847833609E0,-3.066701412E0,9.181260109E0,1.874477386E0,9.859708931E0
2.850339755E0,-3.088535786E0,9.164510727E0,1.893620014E0,9.854598263E0
2.852845849E0,-3.107678413E0,9.171689034E0,1.903191328E0,9.869127726E0
2.855351943E0,-3.112463951E0,9.164510727E0,1.917548299E0,9.866746180E0
2.857858036E0,-3.117249727E0,9.152546883E0,1.915155411E0,9.856682025E0
2.860364130E0,-3.117249727E0,9.176474571E0,1.919941068E0,9.879833254E0
2.862870276E0,-3.114856958E0,9.183652878E0,1.905584097E0,9.882968421E0
2.865376370E0,-3.112463951E0,9.202795982E0,1.912762642E0,9.901391148E0
2.867882464E0,-3.100499868E0,9.202795982E0,1.898405671E0,9.894872279E0
2.870388557E0,-3.112463951E0,9.224330902E0,1.888834357E0,9.916824475E0
2.872894651E0,-3.122035265E0,9.253045082E0,1.891227245E0,9.946993917E0
2.875400797E0,-3.124428272E0,9.282057762E0,1.862513304E0,9.969333184E0
2.877906891E0,-3.114856958E0,9.274879456E0,1.831406593E0,9.953882303E0
2.880412984E0,-3.122035265E0,9.274879456E0,1.797907114E0,9.950023271E0
2.882919078E0,-3.129213810E0,9.282057762E0,1.802692771E0,9.959833161E0
2.885425224E0,-3.117249727E0,9.291629791E0,1.802692771E0,9.965005332E0
2.887931318E0,-3.098107100E0,9.289237022E0,1.778764486E0,9.952496931E0
2.890437411E0,-3.076272726E0,9.291629791E0,1.757229090E0,9.944128526E0
2.892943505E0,-3.071486950E0,9.317950249E0,1.740479350E0,9.964311180E0
2.895449599E0,-3.064308405E0,9.320343018E0,1.721336842E0,9.961013025E0
2.897955745E0,-3.042773008E0,9.322735786E0,1.692622900E0,9.951725599E0
2.900461839E0,-3.018844843E0,9.315557480E0,1.656730533E0,9.931656025E0
2.902967932E0,-2.999702215E0,9.305986404E0,1.608874083E0,9.908989462E0
2.905474026E0,-2.966202736E0,9.294022560E0,1.584945917E0,9.883788119E0
2.907980172E0,-2.942274570E0,9.294022560E0,1.556231976E0,9.872066296E0
2.910486266E0,-2.920739174E0,9.279664993E0,1.539482236E0,9.849512946E0
2.912992359E0,-2.908775091E0,9.270093918E0,1.532303810E0,9.835830862E0
2.915498453E0,-2.882453918E0,9.270093918E0,1.541875124E0,9.829575817E0
2.918004547E0,-2.848954439E0,9.294022560E0,1.556231976E0,9.844656150E0
2.920510693E0,-2.815454960E0,9.286844254E0,1.553839207E0,9.827852212E0
2.923016786E0,-2.805883646E0,9.286844254E0,1.568196177E0,9.827395305E0
2.925522880E0,-2.786741018E0,9.284450531E0,1.572981834E0,9.820449023E0
2.928028974E0,-2.769991398E0,9.274879456E0,1.582553029E0,9.808196335E0
2.930535120E0,-2.750848770E0,9.272486687E0,1.589731574E0,9.801705198E0
2.933041214E0,-2.753241539E0,9.274879456E0,1.589731574E0,9.804640451E0
2.935547307E0,-2.736491680E0,9.279664993E0,1.596910000E0,9.805645856E0
2.938053401E0,-2.741277456E0,9.289237022E0,1.606481314E0,9.817601986E0
2.940559547E0,-2.734098911E0,9.289237022E0,1.616052628E0,9.817171049E0
2.943065641E0,-2.738884687E0,9.289237022E0,1.635195136E0,9.821673835E0
2.945571734E0,-2.719742060E0,9.289237022E0,1.666301847E0,9.821582519E0
2.948077828E0,-2.717349291E0,9.296415329E0,1.678265929E0,9.829745758E0
2.950583922E0,-2.731706142E0,9.317950249E0,1.718943954E0,9.861094442E0
2.953090016E0,-2.724527597E0,9.334700584E0,1.738086581E0,9.878290874E0
2.955596161E0,-2.700599432E0,9.334700584E0,1.752443433E0,9.874255935E0
2.958102255E0,-2.695813894E0,9.337093353E0,1.764407635E0,9.877340692E0
2.960608349E0,-2.693420887E0,9.341878891E0,1.752443433E0,9.879082714E0
2.963114443E0,-2.681456804E0,9.372985840E0,1.738086581E0,9.902727862E0
2.965620589E0,-2.671885490E0,9.375378609E0,1.716551185E0,9.898648600E0
2.968126682E0,-2.659921408E0,9.353842735E0,1.702194214E0,9.872538729E0
2.970632776E0,-2.662314177E0,9.344271660E0,1.680658817E0,9.860423099E0
2.973138870E0,-2.643171787E0,9.358628273E0,1.659123421E0,9.865240533E0
2.975645016E0,-2.624029160E0,9.361021042E0,1.628016710E0,9.857214738E0
2.978151109E0,-2.631207705E0,9.337093353E0,1.608874083E0,9.833262027E0
2.980657203E0,-2.633600473E0,9.334700584E0,1.587338686E0,9.828129555E0
2.983163297E0,-2.628814697E0,9.341878891E0,1.572981834E0,9.831360017E0
2.985669391E0,-2.626421928E0,9.339486122E0,1.561017632E0,9.826539026E0
2.988175536E0,-2.628814697E0,9.322735786E0,1.549053550E0,9.809364717E0
2.990681630E0,-2.621636391E0,9.317950249E0,1.539482236E0,9.801386624E0
2.993187724E0,-2.609672308E0,9.327521324E0,1.508375525E0,9.802460933E0
2.995693818E0,-2.602493763E0,9.320343018E0,1.484447360E0,9.790063928E0
2.998199964E0,-2.604886532E0,9.305986404E0,1.470090389E0,9.774864836E0
3.000706057E0,-2.595315218E0,9.279664993E0,1.450947881E0,9.744387781E0
3.003212151E0,-2.590529680E0,9.277272224E0,1.424626827E0,9.736949499E0
3.005718245E0,-2.600100994E0,9.265308380E0,1.410269856E0,9.726012833E0
3.008224339E0,-2.588136673E0,9.245866776E0,1.398006678E0,9.702521659E0
3.010730484E0,-2.592922449E0,9.212367058E0,1.390828133E0,9.670850869E0
3.013236578E0,-2.578565598E0,9.202795982E0,1.393221021E0,9.658235825E0
3.015742672E0,-2.588136673E0,9.188439369E0,1.386042476E0,9.646086420E0
3.018248766E0,-2.597707987E0,9.181260109E0,1.388435364E0,9.642166599E0
3.020754911E0,-2.612065077E0,9.157332420E0,1.405484200E0,9.625747080E0
3.023261005E0,-2.595315218E0,9.133403778E0,1.410269856E0,9.599145104E0
3.025767099E0,-2.595315218E0,9.138189316E0,1.429412484E0,9.606528254E0
3.028273193E0,-2.609672308E0,9.119047165E0,1.453340650E0,9.595812097E0
3.030779286E0,-2.612065077E0,9.114261627E0,1.470090389E0,9.594467923E0
3.033285432E0,-2.621636391E0,9.107083321E0,1.489233017E0,9.593214214E0
3.035791526E0,-2.635993242E0,9.095118523E0,1.510768414E0,9.589163807E0
3.038297620E0,-2.643171787E0,9.097511292E0,1.505982757E0,9.592656194E0
3.040803714E0,-2.647957325E0,9.119047165E0,1.515554070E0,9.615903667E0
3.043309859E0,-2.643171787E0,9.099904060E0,1.551446438E0,9.602166269E0
3.045815953E0,-2.657528639E0,9.097511292E0,1.541875124E0,9.602319983E0
3.048322047E0,-2.659921408E0,9.083154678E0,1.527518153E0,9.587084672E0
3.050828141E0,-2.655135870E0,9.080761909E0,1.517946839E0,9.581969837E0
3.053334234E0,-2.695813894E0,9.066405296E0,1.520339727E0,9.580112235E0
3.055840380E0,-2.714956284E0,9.068798065E0,1.520339727E0,9.587779662E0
3.058346474E0,-2.736491680E0,9.083154678E0,1.515554070E0,9.606715868E0
3.060852568E0,-2.762812853E0,9.059226990E0,1.537089467E0,9.595070221E0
3.063358661E0,-2.801098108E0,9.040083885E0,1.551446438E0,9.590425085E0
3.065864807E0,-2.825026274E0,9.044869423E0,1.572981834E0,9.605452003E0
3.068370901E0,-2.836990356E0,9.059226990E0,1.587338686E0,9.624850754E0
3.070876995E0,-2.868097067E0,9.061619759E0,1.618445396E0,9.641488419E0
3.073383089E0,-2.868097067E0,9.054440498E0,1.637588024E0,9.637975309E0
3.075889182E0,-2.903989315E0,9.056833267E0,1.649552107E0,9.652999789E0
3.078395328E0,-2.923131943E0,9.056833267E0,1.637588024E0,9.656739808E0
3.080901422E0,-2.939881802E0,9.080761909E0,1.632802367E0,9.683449046E0
3.083407516E0,-2.959024191E0,9.075976372E0,1.618445396E0,9.682382804E0
3.085913609E0,-2.978166819E0,9.059226990E0,1.599302888E0,9.669376452E0
3.088419703E0,-2.997309446E0,9.052047729E0,1.575374603E0,9.664638491E0
3.090925849E0,-2.990130901E0,9.037691116E0,1.546660781E0,9.644319732E0
3.093431943E0,-3.011666298E0,9.032905579E0,1.527518153E0,9.643486340E0
3.095938036E0,-3.033201694E0,9.020941734E0,1.520339727E0,9.637900974E0
3.098444182E0,-3.059522867E0,9.025727272E0,1.510768414E0,9.649189301E0
3.100950276E0,-3.071486950E0,9.020941734E0,1.503589988E0,9.647393674E0
3.103456370E0,-3.076272726E0,9.020941734E0,1.501197100E0,9.648545817E0
3.105962464E0,-3.081058264E0,9.004191399E0,1.494018674E0,9.633300295E0
3.108468557E0,-3.085843801E0,8.997013092E0,1.474876046E0,9.625171993E0
3.110974703E0,-3.081058264E0,8.994620323E0,1.470090389E0,9.620669443E0
3.113480797E0,-3.090928555E0,8.980263710E0,1.450947881E0,9.607508802E0
3.115986891E0,-3.095714331E0,8.989834785E0,1.436590910E0,9.615839544E0
3.118492984E0,-3.081058264E0,8.982656479E0,1.429412484E0,9.603346161E0
3.120999130E0,-3.083451033E0,8.965906143E0,1.438983679E0,9.589880983E0
3.123505224E0,-3.061915636E0,8.977870941E0,1.448554993E0,9.595613871E0
3.126011318E0,-3.052344322E0,8.977870941E0,1.448554993E0,9.592563998E0
3.128517411E0,-3.037987471E0,8.975478172E0,1.438983679E0,9.584323154E0
3.131023557E0,-3.023630619E0,8.973084450E0,1.431805253E0,9.576463488E0
3.133529651E0,-3.014059305E0,8.975478172E0,1.443769336E0,9.577485673E0
3.136035745E0,-3.006880760E0,8.963513374E0,1.458126307E0,9.566192359E0
3.138541839E0,-2.990130901E0,8.925228119E0,1.472483277E0,9.527265441E0
3.141047932E0,-2.973381281E0,8.913264275E0,1.474876046E0,9.511179507E0
3.143554078E0,-2.970988512E0,8.889336586E0,1.498804331E0,9.491759168E0
3.146060172E0,-2.954238653E0,8.874979019E0,1.496411443E0,9.472698972E0
3.148566266E0,-2.930310488E0,8.870193481E0,1.510768414E0,9.463058340E0
3.151072359E0,-2.927917719E0,8.865407944E0,1.522732496E0,9.459750231E0
3.153578505E0,-2.915953398E0,8.860622406E0,1.544267893E0,9.455060918E0
3.156084599E0,-2.903989315E0,8.879764557E0,1.565803289E0,9.472861894E0
3.158590693E0,-2.903989315E0,8.894122124E0,1.587338686E0,9.489900231E0
3.161096786E0,-2.863311291E0,8.901300430E0,1.584945917E0,9.483868117E0
3.163602880E0,-2.853740215E0,8.925228119E0,1.596910000E0,9.505453789E0
3.166109026E0,-2.836990356E0,8.920442581E0,1.594517231E0,9.495540813E0
3.168615120E0,-2.817847729E0,8.927620888E0,1.606481314E0,9.498603200E0
3.171121214E0,-2.803490877E0,8.932407379E0,1.635195136E0,9.503753249E0
3.173627307E0,-2.781955481E0,8.922835350E0,1.647159338E0,9.490490022E0
3.176133453E0,-2.772384167E0,8.932407379E0,1.637588024E0,9.495036076E0
3.178639547E0,-2.779562712E0,8.934800148E0,1.632802367E0,9.498561266E0
3.181145641E0,-2.767598391E0,8.915657043E0,1.639980793E0,9.478295119E0
3.183651734E0,-2.774776936E0,8.910871506E0,1.630409479E0,9.474241558E0
3.186157828E0,-2.789133787E0,8.913264275E0,1.620838284E0,9.479064514E0
3.188663974E0,-2.798705101E0,8.910871506E0,1.630409479E0,9.481277145E0
3.191170068E0,-2.813062191E0,8.906085968E0,1.635195136E0,9.481853684E0
3.193676161E0,-2.832204819E0,8.903693199E0,1.656730533E0,9.489040667E0
3.196182255E0,-2.844168901E0,8.886942863E0,1.659123421E0,9.477327721E0
3.198688401E0,-2.868097067E0,8.882157326E0,1.651944876E0,9.478798522E0
3.201194495E0,-2.880061150E0,8.889336586E0,1.647159338E0,9.488318663E0
3.203700589E0,-2.915953398E0,8.870193481E0,1.625623941E0,9.477645795E0
3.206206682E0,-2.925524712E0,8.865407944E0,1.625623941E0,9.476117667E0
3.208712776E0,-2.937488794E0,8.839086533E0,1.623231053E0,9.454796148E0
3.211218922E0,-2.954238653E0,8.834300995E0,1.623231053E0,9.455542245E0
3.213725016E0,-2.999702215E0,8.819944382E0,1.628016710E0,9.457276071E0
3.216231109E0,-3.006880760E0,8.836693764E0,1.639980793E0,9.477237234E0
3.218737203E0,-3.016452074E0,8.836693764E0,1.654337764E0,9.482772444E0
3.221243349E0,-3.059522867E0,8.829515457E0,1.647159338E0,9.488633056E0
3.223749443E0,-3.078665495E0,8.843872070E0,1.663909078E0,9.511090781E0
3.226255536E0,-3.105285645E0,8.834300995E0,1.675873160E0,9.512950323E0
3.228761630E0,-3.150749207E0,8.829515457E0,1.680658817E0,9.524294086E0
3.231267724E0,-3.167499065E0,8.863015175E0,1.690230131E0,9.562581566E0
3.233773870E0,-3.189034462E0,8.884550095E0,1.699801445E0,9.591376134E0
3.236279964E0,-3.200998545E0,8.874979019E0,1.709372640E0,9.588201035E0
3.238786057E0,-3.217748165E0,8.891729355E0,1.699801445E0,9.607605275E0
3.241292151E0,-3.239283562E0,8.898907661E0,1.697408557E0,9.621055627E0
3.243798297E0,-3.236890793E0,8.906085968E0,1.706979871E0,9.628582946E0
3.246304391E0,-3.246462107E0,8.910871506E0,1.721336842E0,9.638783519E0
3.248810484E0,-3.244069338E0,8.932407379E0,1.730908036E0,9.659602998E0
3.251316578E0,-3.239283562E0,8.949156761E0,1.718943954E0,9.671356319E0
3.253822724E0,-3.253640652E0,8.965906143E0,1.709372640E0,9.689974473E0
3.256328818E0,-3.246462107E0,8.997013092E0,1.706979871E0,9.715942624E0
3.258834911E0,-3.227319479E0,9.011369705E0,1.702194214E0,9.722028601E0
3.261341005E0,-3.220141172E0,9.037691116E0,1.702194214E0,9.744056395E0
3.263847099E0,-3.203391314E0,9.068798065E0,1.668694735E0,9.761626728E0
3.266353245E0,-3.165106058E0,9.092725754E0,1.659123421E0,9.769761948E0
3.268859339E0,-3.124428272E0,9.111868858E0,1.651944876E0,9.773286448E0
3.271365432E0,-3.088535786E0,9.126225471E0,1.637588024E0,9.772857269E0
3.273871526E0,-3.064308405E0,9.145368576E0,1.606481314E0,9.777961679E0
3.276377620E0,-3.018844843E0,9.176474571E0,1.584945917E0,9.789441419E0
3.278883766E0,-2.997309446E0,9.186046600E0,1.551446438E0,9.786434596E0
3.281389859E0,-2.966202736E0,9.178867340E0,1.501197100E0,9.762354073E0
3.283895953E0,-2.930310488E0,9.188439369E0,1.460519075E0,9.754345368E0
3.286402099E0,-2.913560629E0,9.183652878E0,1.436590910E0,9.741258089E0
3.288908193E0,-2.872882605E0,9.193224907E0,1.410269856E0,9.734356667E0
3.291414286E0,-2.848954439E0,9.183652878E0,1.388435364E0,9.715131205E0
3.293920380E0,-2.791526794E0,9.157332420E0,1.381256819E0,9.672498607E0
3.296426474E0,-2.774776936E0,9.152546883E0,1.378864050E0,9.662803297E0
3.298932620E0,-2.774776936E0,9.166903496E0,1.402792215E0,9.679841566E0
3.301438714E0,-2.774776936E0,9.171689034E0,1.438983679E0,9.689682182E0
3.303944807E0,-2.755634308E0,9.162117958E0,1.458126307E0,9.678019335E0
3.306450901E0,-2.738884687E0,9.176474571E0,1.498804331E0,9.693069138E0
3.308957047E0,-2.748456001E0,9.169296265E0,1.544267893E0,9.696121271E0
3.311463141E0,-2.748456001E0,9.166903496E0,1.577767372E0,9.699251516E0
3.313969234E0,-2.736491680E0,9.157332420E0,1.606481314E0,9.691537854E0
3.316475328E0,-2.736491680E0,9.166903496E0,1.666301847E0,9.710667756E0
3.318981474E0,-2.734098911E0,9.159725189E0,1.709372640E0,9.710706319E0
3.321487568E0,-2.741277456E0,9.135796547E0,1.742872238E0,9.696132439E0
3.323993661E0,-2.746062994E0,9.107083321E0,1.795514345E0,9.680067166E0
3.326499755E0,-2.758027315E0,9.097511292E0,1.848156333E0,9.684374435E0
3.329005849E0,-2.765205622E0,9.102297783E0,1.879263043E0,9.696897269E0
3.331511995E0,-2.772384167E0,9.097511292E0,1.915155411E0,9.701476481E0
3.334018089E0,-2.772384167E0,9.075976372E0,1.946262121E0,9.687486636E0
3.336524182E0,-2.781955481E0,9.080761909E0,1.958226204E0,9.697121378E0
3.339030276E0,-2.815454960E0,9.087940216E0,1.975275040E0,9.716951965E0
3.341536422E0,-2.813062191E0,9.083154678E0,1.984846354E0,9.713734238E0
3.344042516E0,-2.863311291E0,9.087940216E0,1.989632010E0,9.733850443E0
3.346548609E0,-2.901596546E0,9.087940216E0,1.989632010E0,9.745181139E0
3.349054703E0,-2.911167860E0,9.099904060E0,1.999203324E0,9.761145740E0
3.351560849E0,-2.932703257E0,9.080761909E0,1.996810555E0,9.749268570E0
3.354066943E0,-2.961417198E0,9.056833267E0,1.992024899E0,9.734699988E0
3.356573036E0,-3.016452074E0,9.078369141E0,1.970489502E0,9.767220600E0
3.359079130E0,-3.049951553E0,9.071190834E0,1.924726725E0,9.761827728E0
3.361585224E0,-3.066701412E0,9.052047729E0,1.905584097E0,9.745536229E0
3.364091370E0,-3.110071182E0,9.030512810E0,1.872084618E0,9.732800480E0
3.366597464E0,-3.150749207E0,9.040083885E0,1.838585138E0,9.748370763E0
3.369103557E0,-3.172284603E0,9.044869423E0,1.817049742E0,9.755753289E0
3.371609651E0,-3.210569859E0,9.040083885E0,1.776371717E0,9.756350339E0
3.374115797E0,-3.215355396E0,9.037691116E0,1.742872238E0,9.749665362E0
3.376621891E0,-3.239283562E0,9.032905579E0,1.711765528E0,9.747639838E0
3.379127984E0,-3.258426189E0,9.037691116E0,1.668694735E0,9.750986825E0
3.381634078E0,-3.267997503E0,9.049654961E0,1.647159338E0,9.761618538E0
3.384140172E0,-3.296711445E0,9.042476654E0,1.620838284E0,9.760215527E0
3.386646318E0,-3.311068296E0,9.030512810E0,1.606481314E0,9.751621254E0
3.389152411E0,-3.315854073E0,9.013762474E0,1.589731574E0,9.734990942E0
3.391658505E0,-3.330210924E0,9.013762474E0,1.599302888E0,9.741457204E0
3.394164599E0,-3.351746321E0,9.020941734E0,1.584945917E0,9.753135226E0
3.396670745E0,-3.356531858E0,9.008976936E0,1.568196177E0,9.741006663E0
3.399176839E0,-3.361317635E0,9.016156197E0,1.539482236E0,9.744718280E0
3.401682932E0,-3.366103172E0,9.037691116E0,1.537089467E0,9.765918048E0
3.404189026E0,-3.370888948E0,9.016156197E0,1.520339727E0,9.745019125E0
3.406695172E0,-3.375674486E0,9.023334503E0,1.510768414E0,9.751828802E0
3.409201266E0,-3.382853031E0,9.028120041E0,1.508375525E0,9.758372960E0
3.411707359E0,-3.361317635E0,9.044869423E0,1.503589988E0,9.765700281E0
3.414213453E0,-3.351746321E0,9.020941734E0,1.517946839E0,9.742471749E0
3.416719599E0,-3.320639610E0,9.020941734E0,1.517946839E0,9.731813798E0
3.419225693E0,-3.318246841E0,9.013762474E0,1.539482236E0,9.727727463E0
3.421731786E0,-3.296711445E0,9.011369705E0,1.561017632E0,9.721618505E0
3.424237880E0,-3.279961586E0,9.020941734E0,1.577767372E0,9.727532455E0
3.426743974E0,-3.251247883E0,9.028120041E0,1.606481314E0,9.729252103E0
3.429250120E0,-3.224926710E0,9.066405296E0,1.647159338E0,9.762837250E0
3.431756214E0,-3.177070379E0,9.080761909E0,1.685444474E0,9.767022890E0
3.434262307E0,-3.126821041E0,9.109476089E0,1.721336842E0,9.783790930E0
3.436768401E0,-3.088535786E0,9.150154114E0,1.723729610E0,9.809975401E0
3.439274547E0,-3.057130098E0,9.209974289E0,1.738086581E0,9.858530104E0
3.441780641E0,-3.021237612E0,9.253045082E0,1.730908036E0,9.886493950E0
3.444286734E0,-2.992523909E0,9.289237022E0,1.714158297E0,9.908756858E0
3.446792828E0,-2.961417198E0,9.320343018E0,1.697408557E0,9.925723228E0
3.449298922E0,-2.935096025E0,9.332307816E0,1.678265929E0,9.925892120E0
3.451805068E0,-2.918346405E0,9.346664429E0,1.654337764E0,9.930443853E0
3.454311161E0,-2.903989315E0,9.363413811E0,1.620838284E0,9.936487754E0
3.456817255E0,-2.894418001E0,9.394520760E0,1.613659739E0,9.961855933E0
3.459323401E0,-2.868097067E0,9.399306297E0,1.604088426E0,9.957210419E0
3.461829495E0,-2.839383125E0,9.406484604E0,1.608874083E0,9.956531773E0
3.464335589E0,-2.808276415E0,9.411270142E0,1.618445396E0,9.953782578E0
3.466841682E0,-2.810669184E0,9.406484604E0,1.618445396E0,9.949933636E0
3.469347776E0,-2.791526794E0,9.418449402E0,1.639980793E0,9.959384920E0
3.471853922E0,-2.779562712E0,9.420842171E0,1.642373681E0,9.958696068E0
3.474360016E0,-2.789133787E0,9.430413246E0,1.635195136E0,9.969243924E0
3.476866109E0,-2.779562712E0,9.425627708E0,1.642373681E0,9.963223267E0
3.479372203E0,-2.772384167E0,9.437591553E0,1.656730533E0,9.974918764E0
3.481878297E0,-2.769991398E0,9.439984322E0,1.673480392E0,9.979313251E0
3.484384443E0,-2.750848770E0,9.451948166E0,1.695015788E0,9.988972500E0
3.486890536E0,-2.746062994E0,9.478269577E0,1.728515267E0,1.001829432E1
3.489396630E0,-2.767598391E0,9.497411728E0,1.764407635E0,1.004856033E1
3.491902776E0,-2.791526794E0,9.504590988E0,1.817049742E0,1.007132273E1
3.494408870E0,-2.791526794E0,9.495018959E0,1.862513304E0,1.007059892E1
3.496914964E0,-2.796312332E0,9.497411728E0,1.900798440E0,1.008133061E1
3.499421057E0,-2.825026274E0,9.478269577E0,1.922333837E0,1.007540247E1
3.501927203E0,-2.836990356E0,9.463912964E0,1.929512382E0,1.006663702E1
3.504433297E0,-2.846561670E0,9.451948166E0,1.924726725E0,1.005717706E1
3.506939391E0,-2.868097067E0,9.442377090E0,1.912762642E0,1.005202103E1
3.509445484E0,-2.903989315E0,9.447162628E0,1.907976985E0,1.006590343E1
3.511951578E0,-2.901596546E0,9.461520195E0,1.905584097E0,1.007823783E1
3.514457724E0,-2.906382322E0,9.483055115E0,1.903191328E0,1.009938264E1
3.516963818E0,-2.930310488E0,9.504590988E0,1.872084618E0,1.012070503E1
3.519469911E0,-2.932703257E0,9.523733139E0,1.845763564E0,1.013454905E1
3.521976005E0,-2.959024191E0,9.547661781E0,1.809871197E0,1.015821359E1
3.524482099E0,-2.985345364E0,9.573982239E0,1.783550143E0,1.018599401E1
3.526988245E0,-2.990130901E0,9.626625061E0,1.764407635E0,1.023356864E1
3.529494339E0,-2.994916677E0,9.667302132E0,1.764407635E0,1.027323662E1
3.532000432E0,-3.009273529E0,9.698409081E0,1.769193292E0,1.030751720E1
3.534506526E0,-3.026023388E0,9.719944954E0,1.742872238E0,1.032820174E1
3.537012672E0,-3.018844843E0,9.736694336E0,1.716551185E0,1.033746530E1
3.539518766E0,-3.021237612E0,9.739087105E0,1.644766450E0,1.032874392E1
3.542024859E0,-3.018844843E0,9.746265411E0,1.604088426E0,1.032841776E1
3.544530953E0,-3.011666298E0,9.755837440E0,1.558624864E0,1.032839821E1
3.547037099E0,-3.009273529E0,9.746265411E0,1.510768414E0,1.031153906E1
3.549543193E0,-2.992523909E0,9.741479874E0,1.474876046E0,1.029693589E1
3.552049286E0,-2.978166819E0,9.741479874E0,1.438983679E0,1.028769079E1
3.554555380E0,-2.961417198E0,9.710372925E0,1.407876968E0,1.024907077E1
3.557061526E0,-2.942274570E0,9.676874161E0,1.378864050E0,1.020784694E1
3.559567620E0,-2.930310488E0,9.652945518E0,1.347757339E0,1.017755013E1
3.562073714E0,-2.927917719E0,9.631410599E0,1.321436286E0,1.015297819E1
3.564579807E0,-2.913560629E0,9.597910881E0,1.321436286E0,1.011706097E1
3.567085953E0,-2.892025232E0,9.542876244E0,1.340578914E0,1.006118526E1
3.569592047E0,-2.872882605E0,9.504590988E0,1.366899967E0,1.002292970E1
3.572098141E0,-2.846561670E0,9.439984322E0,1.376471281E0,9.955445270E0
3.574604234E0,-2.851347208E0,9.404091835E0,1.390828133E0,9.924793551E0
3.577110380E0,-2.844168901E0,9.356235504E0,1.402792215E0,9.879082222E0
3.579616474E0,-2.827419043E0,9.313164711E0,1.427019596E0,9.836956862E0
3.582122568E0,-2.813062191E0,9.260522842E0,1.448554993E0,9.786159296E0
3.584628661E0,-2.808276415E0,9.212367058E0,1.446162224E0,9.738865869E0
3.587134755E0,-2.815454960E0,9.188439369E0,1.477268934E0,9.722989673E0
3.589640901E0,-2.798705101E0,9.147761345E0,1.503589988E0,9.683752925E0
3.592146995E0,-2.767598391E0,9.099904060E0,1.522732496E0,9.632578524E0
3.594653089E0,-2.758027315E0,9.064012527E0,1.539482236E0,9.598595904E0
3.597159182E0,-2.765205622E0,9.064012527E0,1.584945917E0,9.608055932E0
3.599665328E0,-2.741277456E0,9.035298347E0,1.616052628E0,9.579292480E0
3.602171422E0,-2.736491680E0,9.008976936E0,1.639980793E0,9.557174748E0
3.604677516E0,-2.738884687E0,8.992227554E0,1.656730533E0,9.544967353E0
3.607183609E0,-2.719742060E0,8.985049248E0,1.666301847E0,9.534393987E0
3.609689755E0,-2.702992201E0,8.975478172E0,1.678265929E0,9.522707167E0
3.612195849E0,-2.714956284E0,8.944371223E0,1.668694735E0,9.495120132E0
3.614701943E0,-2.702992201E0,8.944371223E0,1.666301847E0,9.491285754E0
3.617208036E0,-2.679064035E0,8.946763992E0,1.659123421E0,9.485497381E0
3.619714182E0,-2.683849812E0,8.944371223E0,1.659123421E0,9.484593661E0
3.622220276E0,-2.695813894E0,8.939585686E0,1.654337764E0,9.482638779E0
3.624726370E0,-2.702992201E0,8.922835350E0,1.625623941E0,9.463921530E0
3.627232464E0,-2.707777977E0,8.930013657E0,1.592124343E0,9.466364952E0
3.629738557E0,-2.710170746E0,8.932407379E0,1.558624864E0,9.463732801E0
3.632244703E0,-2.712563515E0,8.918049812E0,1.534696579E0,9.446952253E0
3.634750797E0,-2.714956284E0,8.930013657E0,1.498804331E0,9.453176501E0
3.637256891E0,-2.726920605E0,8.903693199E0,1.484447360E0,9.429498000E0
3.639762984E0,-2.750848770E0,8.903693199E0,1.491625786E0,9.437577498E0
3.642269130E0,-2.765205622E0,8.882157326E0,1.491625786E0,9.421466360E0
3.644775224E0,-2.772384167E0,8.882157326E0,1.462911963E0,9.419073423E0
3.647281318E0,-2.774776936E0,8.870193481E0,1.455733418E0,9.407384292E0
3.649787411E0,-2.772384167E0,8.860622406E0,1.429412484E0,9.393612907E0
3.652293557E0,-2.777169704E0,8.848658562E0,1.417448282E0,9.381928882E0
3.654799651E0,-2.784348249E0,8.839086533E0,1.395613790E0,9.371754572E0
3.657305745E0,-2.801098108E0,8.841479301E0,1.381256819E0,9.376874599E0
3.659811839E0,-2.798705101E0,8.848658562E0,1.378864050E0,9.382578252E0
3.662317932E0,-2.793919563E0,8.846264839E0,1.376471281E0,9.378542601E0
3.664824078E0,-2.801098108E0,8.824729919E0,1.395613790E0,9.363212409E0
3.667330172E0,-2.798705101E0,8.819944382E0,1.402792215E0,9.359059522E0
3.669836266E0,-2.803490877E0,8.815158844E0,1.407876968E0,9.356746448E0
3.672342359E0,-2.820240498E0,8.800801277E0,1.412662625E0,9.348982580E0
3.674848505E0,-2.839383125E0,8.800801277E0,1.429412484E0,9.357319045E0
3.677354599E0,-2.836990356E0,8.791230202E0,1.474876046E0,9.354651361E0
3.679860693E0,-2.839383125E0,8.772088051E0,1.503589988E0,9.341970250E0
3.682366786E0,-2.836990356E0,8.767302513E0,1.517946839E0,9.339072237E0
3.684872932E0,-2.851347208E0,8.762516975E0,1.532303810E0,9.341297534E0
3.687379026E0,-2.858525753E0,8.769695282E0,1.563410521E0,9.355371573E0
3.689885120E0,-2.880061150E0,8.755337715E0,1.592124343E0,9.353371085E0
3.692391214E0,-2.889632463E0,8.755337715E0,1.613659739E0,9.360011327E0
3.694897359E0,-2.899203777E0,8.748159409E0,1.616052628E0,9.356671506E0
3.697403453E0,-2.908775091E0,8.731410027E0,1.654337764E0,9.350685912E0
3.699909547E0,-2.935096025E0,8.712266922E0,1.680658817E0,9.345747571E0
3.702415641E0,-2.956631422E0,8.697610855E0,1.702194214E0,9.342781657E0
3.704921786E0,-2.970988512E0,8.697610855E0,1.704586983E0,9.347771077E0
3.707427880E0,-2.997309446E0,8.692825317E0,1.716551185E0,9.353909551E0
3.709933974E0,-3.028416157E0,8.680861473E0,1.728515267E0,9.355021398E0
3.712440068E0,-3.047558784E0,8.673683167E0,1.733300924E0,9.355465051E0
3.714946214E0,-3.083451033E0,8.666504860E0,1.750050664E0,9.363688060E0
3.717452307E0,-3.088535786E0,8.668897629E0,1.769193292E0,9.371173048E0
3.719958401E0,-3.136392355E0,8.664112091E0,1.769193292E0,9.382635037E0
3.722464495E0,-3.169891834E0,8.661719322E0,1.776371717E0,9.393034245E0
3.724970589E0,-3.193820000E0,8.666504860E0,1.793121457E0,9.408723465E0
3.727476734E0,-3.215355396E0,8.676075935E0,1.788335800E0,9.423956117E0
3.729982828E0,-3.248854876E0,8.705088615E0,1.802692771E0,9.464846910E0
3.732488922E0,-3.284747362E0,8.712266922E0,1.783550143E0,9.480201014E0
3.734995016E0,-3.325425386E0,8.724231720E0,1.771586061E0,9.503114767E0
3.737501161E0,-3.366103172E0,8.721838951E0,1.759621978E0,9.513011866E0
3.740007255E0,-3.416352510E0,8.731410027E0,1.745265007E0,9.537029699E0
3.742513349E0,-3.437887907E0,8.743373871E0,1.735693693E0,9.553967370E0
3.745019443E0,-3.492922783E0,8.760123253E0,1.711765528E0,9.584905330E0
3.747525589E0,-3.531208038E0,8.774480820E0,1.699801445E0,9.609904725E0
3.750031682E0,-3.569493294E0,8.791230202E0,1.675873160E0,9.635121259E0
3.752537776E0,-3.595814228E0,8.800801277E0,1.649552107E0,9.649093493E0
3.755043870E0,-3.624528170E0,8.831908226E0,1.642373681E0,9.686960239E0
3.757550016E0,-3.655933857E0,8.855836868E0,1.656730533E0,9.722985913E0
3.760056109E0,-3.679862022E0,8.901300430E0,1.687837243E0,9.778718138E0
3.762562203E0,-3.699004650E0,8.937192917E0,1.726122379E0,9.825250689E0
3.765068297E0,-3.708575964E0,8.961120605E0,1.771586061E0,9.858688318E0
3.767574443E0,-3.684647799E0,9.016156197E0,1.829013824E0,9.910246896E0
3.770080536E0,-3.667897940E0,9.023334503E0,1.886441588E0,9.921325653E0
3.772586630E0,-3.648755312E0,9.059226990E0,1.922333837E0,9.953812152E0
3.775092724E0,-3.626920938E0,9.085547447E0,1.977667928E0,9.980626150E0
3.777598870E0,-3.600599766E0,9.099904060E0,2.001596212E0,9.988941885E0
3.780104964E0,-3.540779352E0,9.111868858E0,2.011167526E0,9.980384127E0
3.782611057E0,-3.500101328E0,9.142974854E0,2.023131609E0,9.996887515E0
3.785117151E0,-3.449851990E0,9.128618240E0,2.011167526E0,9.963831821E0
3.787623297E0,-3.406781197E0,9.116654396E0,2.001596212E0,9.936092436E0
3.790129391E0,-3.370888948E0,9.104690552E0,1.975275040E0,9.907572550E0
3.792635484E0,-3.330210924E0,9.078369141E0,1.951047778E0,9.864769561E0
3.795141578E0,-3.289532900E0,9.042476654E0,1.946262121E0,9.817094630E0
3.797647672E0,-3.241676569E0,9.030512810E0,1.946262121E0,9.790125884E0
3.800153818E0,-3.239283562E0,9.023334503E0,1.927119493E0,9.778921878E0
3.802659911E0,-3.220141172E0,8.992227554E0,1.927119493E0,9.743882958E0
3.805166005E0,-3.212962627E0,8.989834785E0,1.934298038E0,9.740727243E0
3.807672099E0,-3.196212769E0,8.975478172E0,1.927119493E0,9.720533629E0
3.810178245E0,-3.203391314E0,8.939585686E0,1.910369754E0,9.686455530E0
3.812684339E0,-3.200998545E0,8.922835350E0,1.879263043E0,9.664109475E0
3.815190432E0,-3.217748165E0,8.896514893E0,1.862513304E0,9.642138575E0
3.817696526E0,-3.234498024E0,8.870193481E0,1.826620936E0,9.616592635E0
3.820202672E0,-3.253640652E0,8.839086533E0,1.802692771E0,9.589855549E0
3.822708766E0,-3.267997503E0,8.807980537E0,1.771586061E0,9.560274368E0
3.825214859E0,-3.272783279E0,8.776873589E0,1.738086581E0,9.527096375E0
3.827720953E0,-3.323032379E0,8.733802795E0,1.723729610E0,9.502268110E0
3.830227099E0,-3.363710403E0,8.688039780E0,1.735693693E0,9.476772419E0
3.832733193E0,-3.366103172E0,8.652147293E0,1.757229090E0,9.448711945E0
3.835239286E0,-3.404388428E0,8.606683731E0,1.773978829E0,9.424004791E0
3.837745380E0,-3.478565931E0,8.570791245E0,1.793121457E0,9.422004461E0
3.840251526E0,-3.512065411E0,8.522934914E0,1.800299883E0,9.392342767E0
3.842757620E0,-3.555136204E0,8.482256889E0,1.817049742E0,9.374931740E0
3.845263714E0,-3.619742393E0,8.448758125E0,1.831406593E0,9.372198193E0
3.847769807E0,-3.672683716E0,8.415258408E0,1.829013824E0,9.362183042E0
3.850275901E0,-3.744468451E0,8.384151459E0,1.838585138E0,9.364584079E0
3.852782047E0,-3.782753468E0,8.367402077E0,1.824228168E0,9.362181889E0
3.855288141E0,-3.825824261E0,8.372187614E0,1.800299883E0,9.379314282E0
3.857794234E0,-3.878466368E0,8.360222816E0,1.817049742E0,9.393481605E0
3.860300328E0,-3.926322937E0,8.369794846E0,1.843370795E0,9.426955683E0
3.862806474E0,-3.964607954E0,8.372187614E0,1.831406593E0,9.442758696E0
3.865312568E0,-4.029214382E0,8.374580383E0,1.807478428E0,9.467583821E0
3.867818661E0,-4.091427803E0,8.376973152E0,1.788335800E0,9.492713289E0
3.870324755E0,-4.172783375E0,8.374580383E0,1.754836321E0,9.519725217E0
3.872830901E0,-4.252045631E0,8.388936996E0,1.709372640E0,9.559085249E0
3.875336995E0,-4.323830605E0,8.376973152E0,1.666301847E0,9.573178789E0
3.877843089E0,-4.421936035E0,8.376973152E0,1.635195136E0,9.612547041E0
3.880349182E0,-4.536791801E0,8.348258972E0,1.620838284E0,9.638621502E0
3.882855328E0,-4.634897232E0,8.336295128E0,1.637588024E0,9.677695146E0
3.885361422E0,-4.759324074E0,8.336295128E0,1.656730533E0,9.741136389E0
3.887867516E0,-4.864907742E0,8.324331284E0,1.661516190E0,9.783785295E0
3.890373609E0,-4.986941338E0,8.307580948E0,1.661516190E0,9.830875910E0
3.892879755E0,-5.113760948E0,8.298009872E0,1.666301847E0,9.888583353E0
3.895385849E0,-5.252544880E0,8.302795410E0,1.663909078E0,9.964649154E0
3.897891943E0,-5.367699623E0,8.305188179E0,1.642373681E0,1.002425764E1
3.900398036E0,-5.499304771E0,8.314759254E0,1.584945917E0,1.009403923E1
3.902904182E0,-5.638088226E0,8.300402641E0,1.496411443E0,1.014514515E1
3.905410276E0,-5.764907837E0,8.283653259E0,1.407876968E0,1.018995541E1
3.907916370E0,-5.858228207E0,8.259724617E0,1.321436286E0,1.021215366E1
3.910422464E0,-5.987739563E0,8.238189697E0,1.235294700E0,1.025898375E1
3.912928557E0,-6.116951942E0,8.233403206E0,1.139581800E0,1.032011028E1
3.915434703E0,-6.248557091E0,8.221439362E0,1.051047325E0,1.037984737E1
3.917940797E0,-6.356234074E0,8.209475517E0,9.625129104E-1,1.042706243E1
3.920446891E0,-6.451947212E0,8.199904442E0,8.859425783E-1,1.047143495E1
3.922952984E0,-6.571887493E0,8.185546875E0,8.282157183E-1,1.052990143E1
3.925459130E0,-6.691528320E0,8.185546875E0,7.779664397E-1,1.060117733E1
3.927965224E0,-6.808776855E0,8.204689980E0,7.348956466E-1,1.068720972E1
3.930471318E0,-6.890132904E0,8.211868286E0,7.061817646E-1,1.074278385E1
3.932977464E0,-6.978667259E0,8.219046593E0,6.846463680E-1,1.080385414E1
3.935483557E0,-7.041179657E0,8.233403206E0,6.655037999E-1,1.085403310E1
3.937989651E0,-7.122535706E0,8.245368004E0,6.655037999E-1,1.091602051E1
3.940495745E0,-7.206284523E0,8.264510155E0,6.774678826E-1,1.098597412E1
3.943001839E0,-7.258926392E0,8.269295692E0,7.157530785E-1,1.102658452E1
3.945507984E0,-7.297211647E0,8.283653259E0,7.564310431E-1,1.106527890E1
3.948014078E0,-7.347461224E0,8.305188179E0,8.138588071E-1,1.111861967E1
3.950520172E0,-7.400103092E0,8.317152023E0,8.715856671E-1,1.116674550E1
3.953026266E0,-7.440781116E0,8.333902359E0,9.577272534E-1,1.121322405E1
3.955532411E0,-7.457530975E0,8.333902359E0,1.022333503E0,1.123004286E1
3.958038505E0,-7.474280834E0,8.343473434E0,1.089332461E0,1.125455766E1
3.960544599E0,-7.498209000E0,8.350651741E0,1.177866936E0,1.128467515E1
3.963050693E0,-7.512565613E0,8.353044510E0,1.271187067E0,1.130610062E1
3.965556839E0,-7.483851910E0,8.336295128E0,1.323829174E0,1.128070829E1
3.968062932E0,-7.380960464E0,8.353044510E0,1.328614831E0,1.122573594E1
3.970569026E0,-7.251748085E0,8.367402077E0,1.335793257E0,1.115282975E1
3.973075120E0,-7.124928474E0,8.388936996E0,1.350150228E0,1.108881307E1
3.975581266E0,-6.995417118E0,8.436793327E0,1.376471281E0,1.104581439E1
3.978087359E0,-6.880561352E0,8.484649658E0,1.407876968E0,1.101424178E1
3.980593453E0,-6.765706062E0,8.532505989E0,1.431805253E0,1.098310080E1
3.983099547E0,-6.689135551E0,8.561220169E0,1.458126307E0,1.096198693E1
3.985605693E0,-6.619743824E0,8.601898193E0,1.484447360E0,1.095523824E1
3.988111786E0,-6.564708710E0,8.642576218E0,1.505982757E0,1.095707571E1
3.990617880E0,-6.540780544E0,8.652147293E0,1.494018674E0,1.094867822E1
3.993123974E0,-6.524031162E0,8.668897629E0,1.479661703E0,1.094998482E1
3.995630120E0,-6.512066841E0,8.676075935E0,1.467697620E0,1.094693768E1
3.998136214E0,-6.535995007E0,8.678468704E0,1.436590910E0,1.095896178E1
4.000642307E0,-6.557530403E0,8.688039780E0,1.386042476E0,1.097289178E1
4.003148401E0,-6.567101955E0,8.692825317E0,1.323829174E0,1.097472386E1
4.005654547E0,-6.598208427E0,8.692825317E0,1.252044439E0,1.098495251E1
4.008160641E0,-6.653243542E0,8.659325600E0,1.149153113E0,1.098044272E1
4.010666734E0,-6.691528320E0,8.618648529E0,1.046261668E0,1.096140124E1
4.013172828E0,-6.701099873E0,8.580363274E0,9.433703423E-1,1.092782325E1
4.015678974E0,-6.681957245E0,8.527720451E0,8.330013752E-1,1.086574710E1
4.018185068E0,-6.488138676E0,8.455936432E0,6.056832075E-1,1.067546985E1
4.020691161E0,-6.384948254E0,8.424829483E0,4.429712892E-1,1.058024289E1
4.023197255E0,-6.344270229E0,8.396115303E0,4.884349108E-1,1.053485100E1
4.025703401E0,-6.337091446E0,8.396115303E0,5.961119533E-1,1.053607278E1
4.028209495E0,-6.389733791E0,8.400900841E0,6.391827464E-1,1.057413767E1
4.030715589E0,-6.468996048E0,8.379365921E0,6.343970895E-1,1.060491126E1
4.033221682E0,-6.545566559E0,8.353044510E0,6.224330068E-1,1.063039120E1
4.035727776E0,-6.658029079E0,8.309973717E0,6.032904387E-1,1.066531639E1
4.038233922E0,-6.799205780E0,8.269295692E0,5.841478109E-1,1.072155209E1
4.040740016E0,-6.947560310E0,8.223832130E0,5.673980713E-1,1.078062845E1
4.043246109E0,-7.091429234E0,8.180761337E0,5.793621540E-1,1.084199636E1
4.045752203E0,-7.273283482E0,8.149654388E0,6.008976102E-1,1.093977135E1
4.048258349E0,-7.431210041E0,8.072785378E0,5.889334679E-1,1.098815676E1
4.050764443E0,-7.608577728E0,7.962715626E0,4.597210586E-1,1.102300497E1
4.053270536E0,-7.778468132E0,7.838288784E0,3.137588799E-1,1.104725225E1
4.055776682E0,-7.960322857E0,7.744968891E0,2.608176768E-1,1.110942433E1
4.058282776E0,-8.154440880E0,7.677969456E0,3.544368446E-1,1.120588000E1
4.060788870E0,-8.331509590E0,7.625327587E0,5.267201066E-1,1.130650728E1
4.063294964E0,-8.465507507E0,7.567600727E0,6.822535396E-1,1.137536232E1
4.065801057E0,-8.604290962E0,7.517351627E0,7.971090674E-1,1.145337423E1
4.068307203E0,-8.719446182E0,7.493422985E0,8.476574421E-1,1.152816780E1
4.070813297E0,-8.822337151E0,7.450352192E0,8.282157183E-1,1.157701697E1
4.073319391E0,-8.891729355E0,7.416852951E0,7.540382147E-1,1.160349655E1
4.075825484E0,-8.958727837E0,7.388139248E0,6.439684033E-1,1.163005165E1
4.078331630E0,-9.011369705E0,7.366603374E0,5.602195859E-1,1.165270249E1
4.080837724E0,-9.047262192E0,7.337889671E0,4.980062246E-1,1.165957067E1
4.083343818E0,-9.073583603E0,7.306783199E0,4.381856322E-1,1.165808761E1
4.085849911E0,-9.085547447E0,7.292426109E0,3.783650696E-1,1.165632065E1
4.088356057E0,-9.104690552E0,7.287640572E0,3.520440459E-1,1.166743460E1
4.090862151E0,-9.097511292E0,7.273283482E0,3.352942765E-1,1.165237257E1
4.093368245E0,-9.001798630E0,7.239784241E0,2.656033039E-1,1.155497294E1
4.095874339E0,-8.779266357E0,7.218248844E0,1.651047617E-1,1.136687704E1
4.098380484E0,-8.527720451E0,7.206284523E0,7.178468257E-2,1.116502153E1
4.100886578E0,-8.254939079E0,7.215855598E0,2.632104978E-2,1.096418187E1
4.103392672E0,-7.965108395E0,7.249355316E0,2.392822690E-2,1.077017534E1
4.105898766E0,-7.709076405E0,7.275676250E0,5.264209956E-2,1.060038184E1
4.108404911E0,-7.457530975E0,7.290033340E0,1.052841991E-1,1.042930674E1
4.110911005E0,-7.242177010E0,7.287640572E0,1.411765367E-1,1.027515274E1
4.113417099E0,-7.067500591E0,7.287640572E0,1.722832322E-1,1.015327293E1
4.115923193E0,-6.930810928E0,7.280461788E0,2.464607358E-1,1.005494937E1
4.118429339E0,-6.830312252E0,7.258926392E0,2.874378264E-1,9.971348872E0
4.120935432E0,-6.768098831E0,7.208677292E0,3.065803945E-1,9.892733779E0
4.123441526E0,-6.744170666E0,7.165606499E0,3.233301640E-1,9.845521665E0
4.125947620E0,-6.758527756E0,7.134500027E0,3.281157911E-1,9.832926728E0
4.128453766E0,-6.803991318E0,7.091429234E0,3.041875660E-1,9.832354576E0
4.130959859E0,-6.820741177E0,7.062715054E0,2.679961324E-1,9.822233761E0
4.133465953E0,-6.863811970E0,7.077072144E0,2.057827413E-1,9.860994444E0
4.135972047E0,-6.894918442E0,7.098607540E0,1.220339537E-1,9.896717719E0
4.138478193E0,-6.933203697E0,7.151249409E0,4.067798331E-2,9.960488759E0
4.140984286E0,-6.961917400E0,7.187141895E0,-1.435693540E-2,1.000617353E1
4.143490380E0,-6.978667259E0,7.230212688E0,-4.546362907E-2,1.004887253E1
4.145996474E0,-7.012166977E0,7.270890713E0,-5.024927482E-2,1.010142873E1
4.148502620E0,-7.004988194E0,7.285247803E0,-3.828516230E-2,1.010673839E1
4.151008714E0,-7.002595425E0,7.309175968E0,-3.589234129E-2,1.012233591E1
4.153514807E0,-6.981060028E0,7.280461788E0,-4.785645381E-2,1.008675434E1
4.156020901E0,-6.954739094E0,7.237390995E0,-6.221338734E-2,1.003753430E1
4.158527047E0,-6.926024914E0,7.196712971E0,-9.332008660E-2,9.988553816E0
4.161033141E0,-6.911668301E0,7.146463871E0,-1.220339537E-1,9.942735883E0
4.163539234E0,-6.902096748E0,7.086643219E0,-1.938186288E-1,9.894292157E0
4.166045328E0,-6.918846607E0,7.069893837E0,-2.775674164E-1,9.896003280E0
4.168551474E0,-6.954739094E0,7.031608582E0,-3.089732230E-1,9.894815792E0
4.171057568E0,-6.995417118E0,6.971488953E0,-3.041875660E-1,9.880791919E0
4.173563661E0,-7.019644260E0,6.892525673E0,-2.970091105E-1,9.842282769E0
4.176069755E0,-7.050751209E0,6.847062111E0,-2.679961324E-1,9.831946607E0
4.178575901E0,-7.081857681E0,6.820741177E0,-1.866401732E-1,9.834126955E0
4.181081995E0,-7.120142937E0,6.794419765E0,-5.264209956E-2,9.841917830E0
4.183588089E0,-7.134500027E0,6.765706062E0,6.221338734E-2,9.832585604E0
4.186094182E0,-7.108178616E0,6.710670948E0,1.507478207E-1,9.776606400E0
4.188600328E0,-7.045965195E0,6.619743824E0,1.722832322E-1,9.669349271E0
4.191106422E0,-6.933203697E0,6.533602238E0,1.339980662E-1,9.527603434E0
4.193612516E0,-6.775277138E0,6.432804585E0,9.332008660E-2,9.343129227E0
4.196118609E0,-6.593422890E0,6.349055767E0,7.178468257E-2,9.153627018E0
4.198624755E0,-6.437590122E0,6.282056808E0,1.387837082E-1,8.995891576E0
4.201130849E0,-6.272485256E0,6.238986015E0,2.416750938E-1,8.850278224E0
4.203636943E0,-6.064310074E0,6.179165363E0,3.879363835E-1,8.666512326E0
4.206143036E0,-5.851049423E0,6.112166405E0,5.793621540E-1,8.481097689E0
4.208649182E0,-5.676373482E0,6.078666687E0,7.372884750E-1,8.349550820E0
4.211155276E0,-5.525625706E0,6.042774677E0,8.931210637E-1,8.236827695E0
