"Time (s)","Acceleration x (m/s^2)","Acceleration y (m/s^2)","Acceleration z (m/s^2)","Absolute acceleration (m/s^2)"
6.403136000E-3,9.744769931E-1,7.838288784E0,6.100202084E0,9.980022141E0
8.913136000E-3,9.744769931E-1,7.838288784E0,6.100202084E0,9.980022141E0
1.144495900E-2,9.888339639E-1,7.821538925E0,6.157629967E0,1.000353290E1
1.399985500E-2,1.012762189E0,7.819146156E0,6.195915222E0,1.002766669E1
1.655605300E-2,1.046261668E0,7.802396297E0,6.243771553E0,1.004772286E1
1.911225100E-2,1.065404296E0,7.800003529E0,6.255735874E0,1.005531564E1
2.166844900E-2,1.063011408E0,7.785646915E0,6.272485256E0,1.005437032E1
2.422464600E-2,1.084546804E0,7.771289825E0,6.267699718E0,1.004257174E1
2.678084400E-2,1.065404296E0,7.761718273E0,6.255735874E0,1.002564652E1
2.933704200E-2,1.063011408E0,7.764111042E0,6.241378784E0,1.001829440E1
3.189324000E-2,1.065404296E0,7.766504288E0,6.205486298E0,9.998086585E0
3.444943800E-2,1.051047325E0,7.756932735E0,6.157629967E0,9.959473518E0
3.700563600E-2,1.031904817E0,7.752147198E0,6.114559174E0,9.927157076E0
3.956183400E-2,1.029511929E0,7.730611801E0,6.081059456E0,9.889465999E0
4.211803200E-2,1.005583763E0,7.728219032E0,6.052345753E0,9.867494982E0
4.467423000E-2,1.005583763E0,7.733004570E0,6.037988663E0,9.862447236E0
4.723042800E-2,1.003190875E0,7.725826263E0,6.004489422E0,9.836090514E0
4.978662600E-2,9.768698215E-1,7.711469173E0,5.999703884E0,9.819240203E0
5.234282400E-2,9.505487680E-1,7.701898098E0,5.987739563E0,9.801826480E0
5.489902100E-2,9.385846853E-1,7.694719315E0,5.985346794E0,9.793570482E0
5.745521900E-2,9.170492887E-1,7.682755470E0,5.990132332E0,9.785059855E0
6.001141700E-2,8.931210637E-1,7.680362701E0,6.011667728E0,9.794170988E0
6.256761500E-2,8.524430394E-1,7.658827305E0,6.006882191E0,9.770717910E0
6.512381300E-2,7.875377536E-1,7.658827305E0,6.016453266E0,9.771159670E0
6.768001100E-2,7.468597889E-1,7.654041290E0,6.026024818E0,9.770113752E0
7.023620900E-2,7.253243923E-1,7.642077446E0,6.042774677E0,9.769471274E0
7.279240700E-2,6.846463680E-1,7.627720356E0,6.047560215E0,9.758270494E0
7.534860500E-2,6.463612318E-1,7.622934818E0,6.037988663E0,9.745985080E0
7.790480300E-2,6.128616929E-1,7.613363266E0,6.033203125E0,9.733367332E0
8.046100100E-2,6.152545214E-1,7.615756035E0,6.042774677E0,9.741324546E0
8.301719900E-2,5.841478109E-1,7.627720356E0,6.049952984E0,9.753218833E0
8.557339600E-2,5.530411601E-1,7.625327587E0,6.037988663E0,9.742113858E0
8.812959400E-2,5.506483316E-1,7.637291908E0,6.045167446E0,9.755792676E0
9.068579200E-2,5.267201066E-1,7.632505894E0,6.023632050E0,9.737387912E0
9.324199000E-2,5.123631358E-1,7.632505894E0,5.987739563E0,9.714457642E0
9.579818800E-2,5.099703074E-1,7.661220074E0,5.975775242E0,9.729555615E0
9.835438600E-2,5.051847100E-1,7.675576687E0,5.959025860E0,9.730348312E0
1.009105840E-1,5.123631358E-1,7.670791149E0,5.932704449E0,9.710846251E0
1.034667820E-1,5.267201066E-1,7.697112083E0,5.915955067E0,9.722216458E0
1.060229800E-1,5.386841893E-1,7.704290867E0,5.901597977E0,9.719832154E0
1.085791780E-1,5.817549825E-1,7.709076405E0,5.908776283E0,9.730464277E0
1.111353760E-1,6.080760360E-1,7.689933777E0,5.925526142E0,9.727111494E0
1.136915740E-1,6.272186637E-1,7.699504852E0,5.932704449E0,9.740264899E0
1.162477710E-1,6.678966284E-1,7.697112083E0,5.951847076E0,9.752748533E0
1.188039690E-1,7.181459069E-1,7.687541008E0,5.980561256E0,9.766326496E0
1.213601670E-1,7.540382147E-1,7.685148239E0,5.987739563E0,9.771545536E0
1.239163650E-1,8.018946648E-1,7.687541008E0,6.002096653E0,9.786035256E0
1.264725630E-1,8.548358679E-1,7.704290867E0,6.011667728E0,9.809535718E0
1.290287610E-1,9.098708034E-1,7.725826263E0,6.033203125E0,9.844582077E0
1.315849590E-1,9.672985673E-1,7.744968891E0,6.033203125E0,9.865077272E0
1.341411570E-1,9.960124493E-1,7.752147198E0,6.023632050E0,9.867723651E0
1.366942300E-1,1.036690354E0,7.756932735E0,6.018846035E0,9.872752400E0
1.392223030E-1,1.091725349E0,7.773682594E0,6.014060497E0,9.888929618E0
1.417283440E-1,1.132403374E0,7.778468132E0,6.040381432E0,9.913279564E0
1.442343860E-1,1.158724308E0,7.759325504E0,6.064310074E0,9.915928145E0
1.467404800E-1,1.192223907E0,7.766504288E0,6.093023777E0,9.943084302E0
1.492465210E-1,1.204187989E0,7.761718273E0,6.116951942E0,9.955472883E0
1.517525630E-1,1.208973646E0,7.768897057E0,6.133701801E0,9.971944471E0
1.542586570E-1,1.211366415E0,7.778468132E0,6.160022736E0,9.995891915E0
1.567646990E-1,1.211366415E0,7.783253670E0,6.186343670E0,1.001585215E1
1.592707400E-1,1.199402332E0,7.780860901E0,6.195915222E0,1.001846933E1
1.617768340E-1,1.199402332E0,7.790432453E0,6.198307991E0,1.002738379E1
1.642828760E-1,1.170688510E0,7.811967850E0,6.186343670E0,1.003335444E1
1.667889170E-1,1.149153113E0,7.811967850E0,6.183950901E0,1.002938898E1
1.692950110E-1,1.101296663E0,7.823931694E0,6.157629967E0,1.001714372E1
1.718010530E-1,1.055832982E0,7.821538925E0,6.140880108E0,1.000008315E1
1.743070940E-1,9.984052777E-1,7.811967850E0,6.121737480E0,9.974934815E0
1.768131880E-1,9.744769931E-1,7.819146156E0,6.119344711E0,9.976724499E0
1.793192300E-1,9.361918569E-1,7.840681553E0,6.104988098E0,9.981163363E0
1.818252710E-1,8.907282352E-1,7.831110477E0,6.112166405E0,9.973879198E0
1.843313650E-1,8.572286963E-1,7.831110477E0,6.112166405E0,9.970943311E0
1.868374070E-1,8.138588071E-1,7.819146156E0,6.093023777E0,9.946172707E0
1.893434490E-1,7.779664397E-1,7.821538925E0,6.097809315E0,9.948114463E0
1.918495420E-1,7.396813035E-1,7.828717709E0,6.081059456E0,9.940585169E0
1.943555840E-1,7.013961077E-1,7.831110477E0,6.064310074E0,9.929456404E0
1.968616260E-1,6.678966284E-1,7.819146156E0,6.049952984E0,9.908938572E0
1.993677190E-1,6.248258352E-1,7.792825222E0,6.028417587E0,9.872200913E0
2.018737610E-1,5.985047817E-1,7.800003529E0,6.018846035E0,9.870398706E0
2.043798030E-1,5.841478109E-1,7.816753387E0,6.016453266E0,9.881324410E0
2.068858960E-1,5.458626747E-1,7.821538925E0,6.023632050E0,9.887293881E0
2.093919380E-1,5.147559643E-1,7.795217991E0,6.009274960E0,9.856053103E0
2.118979800E-1,4.740779996E-1,7.785646915E0,6.002096653E0,9.842063405E0
2.144040740E-1,4.238287210E-1,7.773682594E0,5.987739563E0,9.821547584E0
2.169101150E-1,3.807578981E-1,7.788039684E0,5.947061539E0,9.806430525E0
2.194161570E-1,3.544368446E-1,7.790432453E0,5.915955067E0,9.788513045E0
2.219222510E-1,3.185445070E-1,7.792825222E0,5.865406513E0,9.758718620E0
2.244282920E-1,2.994019389E-1,7.804789066E0,5.846263885E0,9.756186515E0
2.269343340E-1,2.946162820E-1,7.804789066E0,5.851049423E0,9.758909287E0
2.294404280E-1,3.137588799E-1,7.807182312E0,5.851049423E0,9.761419960E0
2.319464690E-1,3.185445070E-1,7.792825222E0,5.886941910E0,9.771677471E0
2.344525110E-1,3.472583890E-1,7.766504288E0,5.930311680E0,9.777922778E0
2.369586050E-1,3.999004960E-1,7.740182877E0,5.944668770E0,9.767775497E0
2.394646460E-1,4.477569461E-1,7.735397339E0,5.968596935E0,9.780644542E0
2.419706880E-1,4.812564552E-1,7.721040249E0,5.999703884E0,9.789919152E0
2.444767820E-1,5.434698462E-1,7.699504852E0,6.014060497E0,9.785022131E0
2.469828240E-1,6.128616929E-1,7.699504852E0,6.030810356E0,9.799420798E0
2.494888650E-1,6.678966284E-1,7.699504852E0,6.054738522E0,9.817755316E0
2.519949590E-1,7.325028181E-1,7.692326546E0,6.064310074E0,9.822642452E0
2.545010010E-1,8.234301209E-1,7.689933777E0,6.064310074E0,9.827969034E0
2.570070420E-1,8.859425783E-1,7.697112083E0,6.071488380E0,9.843444510E0
2.595130840E-1,9.481559992E-1,7.689933777E0,6.071488380E0,9.843630044E0
2.620191780E-1,1.005583763E0,7.699504852E0,6.095416546E0,9.871558972E0
2.645252190E-1,1.043868899E0,7.682755470E0,6.112166405E0,9.872840121E0
2.670313130E-1,1.098903775E0,7.697112083E0,6.107380867E0,9.887023060E0
2.695373550E-1,1.141974568E0,7.694719315E0,6.133701801E0,9.906316623E0
2.720433960E-1,1.168295622E0,7.689933777E0,6.162415504E0,9.923475248E0
2.745494900E-1,1.192223907E0,7.699504852E0,6.160022736E0,9.932253164E0
2.770555320E-1,1.218544960E0,7.689933777E0,6.157629967E0,9.926547241E0
2.795615740E-1,1.216152072E0,7.682755470E0,6.174379826E0,9.931098817E0
2.820676150E-1,1.189831018E0,7.699504852E0,6.152844429E0,9.927515671E0
2.845737090E-1,1.204187989E0,7.689933777E0,6.157629967E0,9.924795062E0
2.870797510E-1,1.201795220E0,7.673183918E0,6.133701801E0,9.896684343E0
2.895858440E-1,1.189831018E0,7.680362701E0,6.104988098E0,9.883043497E0
2.920918860E-1,1.170688510E0,7.675576687E0,6.093023777E0,9.869646793E0
2.945979280E-1,1.141974568E0,7.682755470E0,6.073881149E0,9.860064389E0
2.971040210E-1,1.118046403E0,7.687541008E0,6.049952984E0,9.846331582E0
2.996100630E-1,1.079761267E0,7.677969456E0,6.040381432E0,9.828698143E0
3.021161050E-1,1.022333503E0,7.682755470E0,6.028417587E0,9.818946787E0
3.046221460E-1,9.960124493E-1,7.697112083E0,6.028417587E0,9.827481561E0
3.071282400E-1,9.529415965E-1,7.699504852E0,6.030810356E0,9.826553119E0
3.096342820E-1,8.787640929E-1,7.709076405E0,6.037988663E0,9.831550866E0
3.121403760E-1,8.186444640E-1,7.718647480E0,6.037988663E0,9.833870284E0
3.146464170E-1,7.660023570E-1,7.699504852E0,6.006882191E0,9.795497345E0
3.171525110E-1,6.822535396E-1,7.706683636E0,5.970989704E0,9.772981152E0
3.196585530E-1,6.320042610E-1,7.704290867E0,5.932704449E0,9.744357815E0
3.221645940E-1,5.745765567E-1,7.697112083E0,5.879763603E0,9.702952781E0
3.246706880E-1,5.267201066E-1,7.699504852E0,5.867799282E0,9.694889244E0
3.271767300E-1,4.980062246E-1,7.699504852E0,5.860620975E0,9.689027990E0
3.296827710E-1,4.621138871E-1,7.687541008E0,5.872584820E0,9.684992951E0
3.321888650E-1,4.286143482E-1,7.689933777E0,5.889334679E0,9.695517248E0
3.346949070E-1,3.927220106E-1,7.680362701E0,5.918347836E0,9.704073521E0
3.372009490E-1,3.735794425E-1,7.661220074E0,5.923133373E0,9.691097130E0
3.397070420E-1,3.616153300E-1,7.658827305E0,5.918347836E0,9.685826884E0
3.422130840E-1,3.520440459E-1,7.656434059E0,5.935097694E0,9.693828044E0
3.447191260E-1,3.711866140E-1,7.644470215E0,5.947061539E0,9.692432373E0
3.472252190E-1,3.879363835E-1,7.646862984E0,5.925526142E0,9.681780218E0
3.497312610E-1,4.046861231E-1,7.654041290E0,5.925526142E0,9.688135992E0
3.522373030E-1,4.453641176E-1,7.670791149E0,5.937490463E0,9.710467499E0
3.547433960E-1,4.788636267E-1,7.675576687E0,5.930311680E0,9.711456352E0
3.572494380E-1,5.243272781E-1,7.677969456E0,5.942276001E0,9.723002526E0
3.597554800E-1,5.626124144E-1,7.675576687E0,5.956633091E0,9.732034113E0
3.622615740E-1,5.937191248E-1,7.673183918E0,5.985346794E0,9.749596406E0
3.647676150E-1,6.391827464E-1,7.685148239E0,5.994917870E0,9.767758100E0
3.672736570E-1,6.870391965E-1,7.692326546E0,6.006882191E0,9.783994286E0
3.697797510E-1,7.277171612E-1,7.692326546E0,6.026024818E0,9.798695580E0
3.722857920E-1,7.683951855E-1,7.704290867E0,6.049952984E0,9.825907593E0
3.747918340E-1,8.162516356E-1,7.704290867E0,6.049952984E0,9.829765796E0
3.772979280E-1,8.691928387E-1,7.711469173E0,6.061916828E0,9.847288390E0
3.798039690E-1,9.002995491E-1,7.728219032E0,6.057131290E0,9.860261059E0
3.823100110E-1,9.290133715E-1,7.718647480E0,6.066702843E0,9.861311685E0
3.848161050E-1,9.385846853E-1,7.718647480E0,6.069095612E0,9.863690064E0
3.873221460E-1,9.433703423E-1,7.728219032E0,6.073881149E0,9.874580965E0
3.898281880E-1,9.361918569E-1,7.725826263E0,6.078666687E0,9.874970144E0
3.923342820E-1,9.122636318E-1,7.749754429E0,6.064310074E0,9.882650217E0
3.948403240E-1,8.955138922E-1,7.759325504E0,6.054738522E0,9.882759533E0
3.973463650E-1,8.620143533E-1,7.776075363E0,6.021239281E0,9.872473817E0
3.998524590E-1,8.353942037E-1,7.814360619E0,6.004489422E0,9.890197600E0
4.023585010E-1,8.186444640E-1,7.809575081E0,5.985346794E0,9.873399513E0
4.048645940E-1,7.995018363E-1,7.821538925E0,5.982954025E0,9.879848846E0
4.073706360E-1,7.660023570E-1,7.852645874E0,5.987739563E0,9.904737852E0
4.098766780E-1,7.516453862E-1,7.857431412E0,5.978168488E0,9.901651258E0
4.123827710E-1,7.588238716E-1,7.874181271E0,5.980561256E0,9.916937899E0
4.148888130E-1,7.588238716E-1,7.876574039E0,5.990132332E0,9.924611711E0
4.173948550E-1,7.396813035E-1,7.864609718E0,5.992525101E0,9.915118332E0
4.199009490E-1,7.037889361E-1,7.876574039E0,6.004489422E0,9.929231122E0
4.224069900E-1,6.894320250E-1,7.857431412E0,6.009274960E0,9.915943245E0
4.249130320E-1,6.798607111E-1,7.843074322E0,5.992525101E0,9.893754721E0
4.274191260E-1,6.702894568E-1,7.826324463E0,5.970989704E0,9.866780660E0
4.299251670E-1,6.607181430E-1,7.826324463E0,5.949454308E0,9.853116747E0
4.324312090E-1,6.774678826E-1,7.838288784E0,5.930311680E0,9.852224643E0
4.349373030E-1,6.846463680E-1,7.840681553E0,5.923133373E0,9.850306433E0
4.374433440E-1,6.966105103E-1,7.835896015E0,5.918347836E0,9.844459034E0
4.399493860E-1,7.229315639E-1,7.857431412E0,5.908776283E0,9.857763215E0
4.424554800E-1,7.277171612E-1,7.867002487E0,5.925526142E0,9.875786574E0
4.449615210E-1,7.564310431E-1,7.867002487E0,5.947061539E0,9.890877464E0
4.474675630E-1,7.683951855E-1,7.869395256E0,5.973382473E0,9.909546459E0
4.499736570E-1,7.755736113E-1,7.874181271E0,5.997310638E0,9.928342259E0
4.524796990E-1,7.731808424E-1,7.852645874E0,5.997310638E0,9.911084236E0
4.549857400E-1,7.851449251E-1,7.845467091E0,5.997310638E0,9.906338441E0
4.574918340E-1,8.138588071E-1,7.840681553E0,6.009274960E0,9.912115764E0
4.599978760E-1,8.306085467E-1,7.840681553E0,5.999703884E0,9.907706317E0
4.625039170E-1,8.428717852E-1,7.835896015E0,6.006882191E0,9.909305367E0
4.650100110E-1,8.452646136E-1,7.814360619E0,6.014060497E0,9.896849388E0
4.675160530E-1,8.572286963E-1,7.807182312E0,6.009274960E0,9.889303425E0
4.700221460E-1,8.476574421E-1,7.804789066E0,5.999703884E0,9.880774373E0
4.725281880E-1,8.596215248E-1,7.797610760E0,5.970989704E0,9.858722066E0
4.750342300E-1,8.377870321E-1,7.792825222E0,5.951847076E0,9.841468167E0
4.775403240E-1,8.282157183E-1,7.804789066E0,5.927918911E0,9.835695006E0
4.800463650E-1,7.995018363E-1,7.802396297E0,5.923133373E0,9.828534994E0
4.825524070E-1,8.018946648E-1,7.790432453E0,5.908776283E0,9.810581534E0
4.850585010E-1,7.803592682E-1,7.780860901E0,5.892026424E0,9.791155822E0
4.875645420E-1,7.731808424E-1,7.788039684E0,5.882156372E0,9.790359254E0
4.900705840E-1,7.636095285E-1,7.785646915E0,5.889334679E0,9.792020239E0
4.925766780E-1,7.564310431E-1,7.766504288E0,5.896812439E0,9.780755273E0
4.950827190E-1,7.803592682E-1,7.742575645E0,5.899205208E0,9.765093973E0
4.975887610E-1,7.731808424E-1,7.752147198E0,5.906383514E0,9.776449305E0
5.000948550E-1,7.636095285E-1,7.752147198E0,5.915955067E0,9.781483018E0
5.026008960E-1,7.636095285E-1,7.737790108E0,5.923133373E0,9.774456723E0
5.051069380E-1,7.516453862E-1,7.721040249E0,5.920740604E0,9.758821784E0
5.076130320E-1,7.683951855E-1,7.718647480E0,5.930311680E0,9.764043563E0
5.101190740E-1,7.588238716E-1,7.713861942E0,5.939883232E0,9.765331154E0
5.126251150E-1,7.731808424E-1,7.728219032E0,5.927918911E0,9.770537377E0
5.151312090E-1,7.683951855E-1,7.737790108E0,5.930311680E0,9.779183173E0
5.176372510E-1,7.731808424E-1,7.721040249E0,5.937490463E0,9.770673679E0
5.201432920E-1,7.923234105E-1,7.735397339E0,5.947061539E0,9.789366135E0
5.226493860E-1,7.923234105E-1,7.725826263E0,5.959025860E0,9.789083565E0
5.251554280E-1,8.090731502E-1,7.725826263E0,5.968596935E0,9.796281957E0
5.276614690E-1,8.258228898E-1,7.721040249E0,5.978168488E0,9.799742060E0
5.301675630E-1,8.377870321E-1,7.721040249E0,5.980561256E0,9.802217228E0
5.326736050E-1,8.620143533E-1,7.711469173E0,5.990132332E0,9.802627755E0
5.351796990E-1,8.859425783E-1,7.723433495E0,5.999703884E0,9.820018630E0
5.376857400E-1,9.074779749E-1,7.716254711E0,6.026024818E0,9.832450262E0
5.401917820E-1,9.050851464E-1,7.704290867E0,6.026024818E0,9.822843376E0
5.426978760E-1,8.979067206E-1,7.687541008E0,6.030810356E0,9.811992498E0
5.452039170E-1,8.955138922E-1,7.685148239E0,6.021239281E0,9.804018108E0
5.477099590E-1,8.979067206E-1,7.682755470E0,6.028417587E0,9.806772492E0
5.502160530E-1,8.691928387E-1,7.677969456E0,6.018846035E0,9.794550462E0
5.527220940E-1,8.377870321E-1,7.709076405E0,6.042774677E0,9.830914094E0
5.552281360E-1,8.330013752E-1,7.704290867E0,6.028417587E0,9.817932963E0
5.577342300E-1,8.282157183E-1,7.713861942E0,6.016453266E0,9.817704276E0
5.602402710E-1,7.947162390E-1,7.716254711E0,5.985346794E0,9.797782245E0
5.627463130E-1,7.660023570E-1,7.730611801E0,5.966204166E0,9.795137089E0
5.652524070E-1,7.564310431E-1,7.742575645E0,5.961418629E0,9.800927385E0
5.677584490E-1,7.444669604E-1,7.733004570E0,5.923133373E0,9.769191353E0
5.702644900E-1,7.301099896E-1,7.716254711E0,5.911169052E0,9.747592879E0
5.727705840E-1,7.181459069E-1,7.711469173E0,5.911169052E0,9.742915884E0
5.752766260E-1,7.253243923E-1,7.713861942E0,5.913562298E0,9.746793349E0
5.777826670E-1,7.492526174E-1,7.706683636E0,5.915955067E0,9.744376660E0
5.802887610E-1,7.588238716E-1,7.689933777E0,5.939883232E0,9.746440785E0
5.827948030E-1,7.636095285E-1,7.682755470E0,5.961418629E0,9.754298703E0
5.853008440E-1,7.731808424E-1,7.682755470E0,5.954239845E0,9.750667278E0
5.878069380E-1,7.755736113E-1,7.680362701E0,5.968596935E0,9.757747436E0
5.903129800E-1,7.995018363E-1,7.689933777E0,5.954239845E0,9.758445410E0
5.928190740E-1,7.971090674E-1,7.697112083E0,5.966204166E0,9.771208188E0
5.953251150E-1,8.066803217E-1,7.687541008E0,5.963811398E0,9.762994739E0
5.978311570E-1,8.090731502E-1,7.699504852E0,5.942276001E0,9.759488634E0
6.003372510E-1,7.971090674E-1,7.711469173E0,5.939883232E0,9.766491309E0
6.028432920E-1,7.899305820E-1,7.718647480E0,5.927918911E0,9.764309083E0
6.053493340E-1,7.683951855E-1,7.713861942E0,5.925526142E0,9.757354011E0
6.078554280E-1,7.660023570E-1,7.713861942E0,5.923133373E0,9.755712923E0
6.103614690E-1,7.420741320E-1,7.701898098E0,5.915955067E0,9.740042745E0
6.128675110E-1,7.301099896E-1,7.706683636E0,5.918347836E0,9.744376551E0
6.153736050E-1,7.061817646E-1,7.713861942E0,5.930311680E0,9.755560228E0
6.178796460E-1,6.990033388E-1,7.704290867E0,5.942276001E0,9.754760248E0
6.203856880E-1,7.037889361E-1,7.704290867E0,5.959025860E0,9.765316473E0
6.228917820E-1,6.870391965E-1,7.701898098E0,5.963811398E0,9.765157631E0
6.253978240E-1,6.655037999E-1,7.716254711E0,5.985346794E0,9.788148871E0
6.279038650E-1,6.607181430E-1,7.730611801E0,5.961418629E0,9.784550033E0
6.304099070E-1,6.535396576E-1,7.735397339E0,5.968596935E0,9.792223213E0
6.329160010E-1,6.463612318E-1,7.723433495E0,5.949454308E0,9.770630192E0
6.354220420E-1,6.583253145E-1,7.725826263E0,5.942276001E0,9.768952234E0
6.379281360E-1,6.583253145E-1,7.733004570E0,5.951847076E0,9.780451703E0
6.404341780E-1,6.702894568E-1,7.747361660E0,5.956633091E0,9.795528491E0
6.429402710E-1,6.822535396E-1,7.740182877E0,5.970989704E0,9.799419315E0
6.454463130E-1,6.990033388E-1,7.744968891E0,5.982954025E0,9.811670992E0
6.479523550E-1,7.277171612E-1,7.747361660E0,5.994917870E0,9.822943816E0
6.504584490E-1,7.325028181E-1,7.752147198E0,6.004489422E0,9.832916138E0
6.529644900E-1,7.612167001E-1,7.752147198E0,6.018846035E0,9.843868377E0
6.554705320E-1,7.851449251E-1,7.749754429E0,6.035595894E0,9.854114067E0
6.579766260E-1,8.042874932E-1,7.749754429E0,6.030810356E0,9.852727827E0
6.604826670E-1,8.428717852E-1,7.764111042E0,6.049952984E0,9.878956637E0
6.629887090E-1,8.572286963E-1,7.761718273E0,6.057131290E0,9.882709702E0
6.654948030E-1,8.763712645E-1,7.768897057E0,6.045167446E0,9.882703958E0
6.680008440E-1,8.883354068E-1,7.780860901E0,6.045167446E0,9.893178741E0
6.705068860E-1,9.170492887E-1,7.792825222E0,6.042774677E0,9.903748287E0
6.730129800E-1,9.290133715E-1,7.804789066E0,6.035595894E0,9.909904944E0
6.755190210E-1,9.361918569E-1,7.797610760E0,6.045167446E0,9.910763755E0
6.780250630E-1,9.218349457E-1,7.823931694E0,6.035595894E0,9.924318849E0
6.805311570E-1,9.170492887E-1,7.828717709E0,6.037988663E0,9.929104061E0
6.830371990E-1,9.074779749E-1,7.831110477E0,6.040381432E0,9.931566615E0
6.855432400E-1,8.763712645E-1,7.819146156E0,6.037988663E0,9.917881845E0
6.880492820E-1,8.691928387E-1,7.838288784E0,6.047560215E0,9.938171452E0
6.905553760E-1,8.428717852E-1,7.843074322E0,6.035595894E0,9.932404817E0
6.930614170E-1,8.162516356E-1,7.835896015E0,6.026024818E0,9.918694884E0
6.955675110E-1,8.018946648E-1,7.835896015E0,5.992525101E0,9.897204580E0
6.980735530E-1,7.875377536E-1,7.847859859E0,5.982954025E0,9.899740348E0
7.005796460E-1,7.731808424E-1,7.859824181E0,5.970989704E0,9.900876871E0
7.030856880E-1,7.540382147E-1,7.862216949E0,5.973382473E0,9.902743416E0
7.055917300E-1,7.348956466E-1,7.876574039E0,5.980561256E0,9.917036006E0
7.080978240E-1,6.990033388E-1,7.900502205E0,5.987739563E0,9.937784755E0
7.106038650E-1,6.798607111E-1,7.907680511E0,5.982954025E0,9.939283703E0
7.131099070E-1,6.631109715E-1,7.907680511E0,5.968596935E0,9.929515427E0
7.156160010E-1,6.535396576E-1,7.883752346E0,5.947061539E0,9.896878603E0
7.181220420E-1,6.415755749E-1,7.886145115E0,5.939883232E0,9.893690757E0
7.206280840E-1,6.272186637E-1,7.895716667E0,5.935097694E0,9.897531489E0
7.231341780E-1,6.200401783E-1,7.914859295E0,5.923133373E0,9.905198455E0
7.256402190E-1,6.080760360E-1,7.919644833E0,5.935097694E0,9.915438235E0
7.281463130E-1,6.128616929E-1,7.912466049E0,5.937490463E0,9.911433369E0
7.306523550E-1,6.248258352E-1,7.919644833E0,5.942276001E0,9.920777473E0
7.331583960E-1,6.296114326E-1,7.936394691E0,5.937490463E0,9.931594245E0
7.356644900E-1,6.439684033E-1,7.943572998E0,5.937490463E0,9.938251369E0
7.381705320E-1,6.535396576E-1,7.917252064E0,5.915955067E0,9.904974441E0
7.406765740E-1,6.296114326E-1,7.914859295E0,5.906383514E0,9.895795796E0
7.431826670E-1,6.343970895E-1,7.914859295E0,5.886941910E0,9.884510224E0
7.456887090E-1,6.200401783E-1,7.924430370E0,5.874977589E0,9.884149340E0
7.481947510E-1,6.104688644E-1,7.902894974E0,5.851049423E0,9.852065801E0
7.507008440E-1,6.080760360E-1,7.907680511E0,5.824728489E0,9.840153937E0
7.532068860E-1,6.128616929E-1,7.910073280E0,5.800800323E0,9.828231944E0
7.557129280E-1,6.104688644E-1,7.898109436E0,5.798407555E0,9.817043092E0
7.582190210E-1,6.272186637E-1,7.890930653E0,5.815157413E0,9.822232209E0
7.607250630E-1,6.415755749E-1,7.876574039E0,5.846263885E0,9.830098638E0
7.632311570E-1,6.535396576E-1,7.876574039E0,5.851049423E0,9.833733372E0
7.657371990E-1,6.822535396E-1,7.852645874E0,5.882156372E0,9.835104509E0
7.682432400E-1,7.061817646E-1,7.819146156E0,5.899205208E0,9.820303528E0
7.707493340E-1,7.468597889E-1,7.816753387E0,5.925526142E0,9.837240117E0
7.732553760E-1,7.683951855E-1,7.809575081E0,5.947061539E0,9.846188859E0
7.757614170E-1,8.018946648E-1,7.795217991E0,5.966204166E0,9.849063445E0
7.782675110E-1,8.282157183E-1,7.780860901E0,5.975775242E0,9.845690802E0
7.807735530E-1,8.811569214E-1,7.785646915E0,5.978168488E0,9.855517941E0
7.832795940E-1,9.026923180E-1,7.780860901E0,5.999703884E0,9.866767276E0
7.857856880E-1,9.385846853E-1,7.761718273E0,6.006882191E0,9.859403908E0
7.882917300E-1,9.577272534E-1,7.752147198E0,6.028417587E0,9.866855947E0
7.907977710E-1,9.792626500E-1,7.725826263E0,6.040381432E0,9.855635679E0
7.933038650E-1,9.840483069E-1,7.721040249E0,6.064310074E0,9.867049725E0
7.958099070E-1,9.625129104E-1,7.689933777E0,6.088238239E0,9.855361863E0
7.983159490E-1,9.577272534E-1,7.697112083E0,6.090631008E0,9.861975562E0
8.008220420E-1,9.409775138E-1,7.673183918E0,6.073881149E0,9.831338787E0
8.033280840E-1,9.122636318E-1,7.646862984E0,6.033203125E0,9.782958570E0
8.058341260E-1,8.931210637E-1,7.670791149E0,6.009274960E0,9.785197373E0
8.083402190E-1,8.596215248E-1,7.675576687E0,5.994917870E0,9.777140017E0
8.108462610E-1,8.476574421E-1,7.677969456E0,5.973382473E0,9.764785521E0
8.133523550E-1,8.401798606E-1,7.680362701E0,5.959025860E0,9.757246672E0
8.158583960E-1,8.066803217E-1,7.675576687E0,5.949454308E0,9.744804625E0
8.183644380E-1,8.018946648E-1,7.658827305E0,5.937490463E0,9.723911957E0
8.208705320E-1,7.971090674E-1,7.642077446E0,5.930311680E0,9.705942879E0
8.233765740E-1,7.971090674E-1,7.637291908E0,5.930311680E0,9.702175384E0
8.258826150E-1,7.995018363E-1,7.644470215E0,5.944668770E0,9.716800648E0
8.283887090E-1,8.066803217E-1,7.656434059E0,5.925526142E0,9.715120982E0
8.308947510E-1,8.162516356E-1,7.658827305E0,5.923133373E0,9.716347636E0
8.334007920E-1,8.186444640E-1,7.654041290E0,5.913562298E0,9.706943179E0
8.359068860E-1,8.428717852E-1,7.637291908E0,5.903990746E0,9.689982831E0
8.384129280E-1,8.715856671E-1,7.637291908E0,5.903990746E0,9.692522685E0
8.409190210E-1,8.763712645E-1,7.654041290E0,5.903990746E0,9.706156881E0
8.434250630E-1,9.050851464E-1,7.654041290E0,5.896812439E0,9.704428068E0
8.459311050E-1,9.122636318E-1,7.656434059E0,5.896812439E0,9.706987400E0
8.484371990E-1,9.337990284E-1,7.673183918E0,5.896812439E0,9.722249174E0
8.509432400E-1,9.433703423E-1,7.677969456E0,5.913562298E0,9.737113618E0
8.534492820E-1,9.720842242E-1,7.689933777E0,5.915955067E0,9.750823226E0
8.559553760E-1,1.000798106E0,7.701898098E0,5.935097694E0,9.774774463E0
8.584614170E-1,9.936196208E-1,7.709076405E0,5.956633091E0,9.792783912E0
8.609674590E-1,1.000798106E0,7.718647480E0,5.985346794E0,9.818527996E0
8.634735530E-1,9.792626500E-1,7.716254711E0,6.011667728E0,9.830548865E0
8.659795940E-1,9.529415965E-1,7.737790108E0,6.006882191E0,9.841957483E0
8.684856360E-1,9.146564603E-1,7.761718273E0,5.997310638E0,9.851324880E0
8.709917300E-1,8.620143533E-1,7.771289825E0,5.973382473E0,9.839578876E0
8.734977710E-1,8.258228898E-1,7.783253670E0,5.939883232E0,9.825641656E0
8.760038650E-1,7.923234105E-1,7.816753387E0,5.930311680E0,9.843678506E0
8.785099070E-1,7.540382147E-1,7.831110477E0,5.899205208E0,9.833386346E0
8.810159490E-1,7.013961077E-1,7.852645874E0,5.896812439E0,9.845222225E0
8.835220420E-1,6.343970895E-1,7.867002487E0,5.913562298E0,9.862170494E0
8.860280840E-1,5.961119533E-1,7.881359577E0,5.903990746E0,9.865509869E0
8.885341260E-1,5.578267574E-1,7.869395256E0,5.899205208E0,9.850846383E0
8.910402190E-1,5.506483316E-1,7.876574039E0,5.906383514E0,9.860476581E0
8.935462610E-1,5.482555032E-1,7.878966808E0,5.889334679E0,9.852053848E0
8.960523030E-1,5.219344497E-1,7.876574039E0,5.877370834E0,9.841560958E0
8.985583960E-1,5.458626747E-1,7.874181271E0,5.872584820E0,9.838086664E0
9.010644380E-1,5.530411601E-1,7.855038643E0,5.892026424E0,9.834808691E0
9.035704800E-1,5.578267574E-1,7.847859859E0,5.889334679E0,9.827733107E0
9.060765740E-1,5.745765567E-1,7.859824181E0,5.892026424E0,9.839865332E0
9.085826150E-1,6.032904387E-1,7.862216949E0,5.882156372E0,9.837590066E0
9.110887090E-1,6.200401783E-1,7.862216949E0,5.877370834E0,9.835771099E0
9.135947510E-1,6.559324861E-1,7.859824181E0,5.863013744E0,9.827614855E0
9.161007920E-1,6.990033388E-1,7.855038643E0,5.870192051E0,9.831042288E0
9.186068860E-1,7.301099896E-1,7.862216949E0,5.882156372E0,9.846180962E0
9.211129280E-1,7.612167001E-1,7.852645874E0,5.879763603E0,9.839467370E0
9.236189690E-1,8.018946648E-1,7.855038643E0,5.872584820E0,9.840321113E0
9.261250630E-1,8.524430394E-1,7.857431412E0,5.906383514E0,9.866673895E0
9.286311050E-1,8.811569214E-1,7.847859859E0,5.903990746E0,9.860144452E0
9.311371460E-1,8.955138922E-1,7.838288784E0,5.906383514E0,9.855256588E0
9.336432400E-1,9.218349457E-1,7.816753387E0,5.925526142E0,9.852069491E0
9.361492820E-1,9.553344250E-1,7.802396297E0,5.942276001E0,9.853968536E0
9.386553760E-1,9.649057388E-1,7.816753387E0,5.935097694E0,9.861950175E0
9.411614170E-1,9.672985673E-1,7.809575081E0,5.949454308E0,9.865147542E0
9.436674590E-1,9.768698215E-1,7.795217991E0,5.954239845E0,9.857619911E0
9.461735530E-1,9.720842242E-1,7.792825222E0,5.968596935E0,9.863935424E0
9.486795940E-1,9.672985673E-1,7.778468132E0,5.994917870E0,9.868093699E0
9.511856360E-1,9.505487680E-1,7.776075363E0,6.004489422E0,9.870399396E0
9.536917300E-1,9.457631707E-1,7.756932735E0,6.009274960E0,9.857781646E0
9.561977710E-1,9.002995491E-1,7.744968891E0,6.014060497E0,9.847030317E0
9.587038130E-1,8.883354068E-1,7.744968891E0,6.028417587E0,9.854719759E0
9.612099070E-1,8.835497499E-1,7.737790108E0,6.049952984E0,9.861845011E0
9.637159490E-1,8.644071817E-1,7.730611801E0,6.061916828E0,9.861865657E0
9.662220420E-1,8.186444640E-1,7.701898098E0,6.047560215E0,9.826616794E0
9.687280840E-1,7.827520967E-1,7.716254711E0,6.021239281E0,9.818788626E0
9.712341260E-1,7.325028181E-1,7.711469173E0,5.970989704E0,9.780390342E0
9.737402190E-1,7.037889361E-1,7.721040249E0,5.942276001E0,9.768337907E0
9.762462610E-1,6.678966284E-1,7.723433495E0,5.935097694E0,9.763344483E0
9.787523030E-1,6.631109715E-1,7.721040249E0,5.939883232E0,9.764035615E0
9.812583960E-1,6.439684033E-1,7.733004570E0,5.937490463E0,9.770764964E0
9.837644380E-1,6.343970895E-1,7.740182877E0,5.942276001E0,9.778728685E0
9.862704800E-1,6.343970895E-1,7.733004570E0,5.961418629E0,9.784698841E0
9.887765740E-1,6.104688644E-1,7.730611801E0,5.970989704E0,9.787121594E0
9.912826150E-1,5.889334679E-1,7.733004570E0,5.951847076E0,9.776026081E0
9.937887090E-1,5.530411601E-1,7.740182877E0,5.932704449E0,9.767971517E0
9.962947510E-1,5.338985324E-1,7.747361660E0,5.896812439E0,9.750849054E0
9.988007920E-1,5.171487927E-1,7.742575645E0,5.853442192E0,9.719964300E0
1.001306886E0,5.195416212E-1,7.761718273E0,5.815157413E0,9.712376115E0
1.003812928E0,5.147559643E-1,7.780860901E0,5.800800323E0,9.718850470E0
1.006318969E0,4.908277392E-1,7.792825222E0,5.781657696E0,9.715791400E0
1.008825063E0,4.980062246E-1,7.800003529E0,5.800800323E0,9.733311340E0
1.011331105E0,5.075774789E-1,7.800003529E0,5.803193092E0,9.735231893E0
1.013837146E0,5.099703074E-1,7.811967850E0,5.810371399E0,9.749221876E0
1.016343240E0,5.147559643E-1,7.811967850E0,5.827121258E0,9.759465023E0
1.018849282E0,5.099703074E-1,7.823931694E0,5.851049423E0,9.783085210E0
1.021355376E0,5.219344497E-1,7.838288784E0,5.851049423E0,9.795201171E0
1.023861417E0,5.410770178E-1,7.857431412E0,5.843871117E0,9.807284148E0
1.026367459E0,5.315057039E-1,7.864609718E0,5.834300041E0,9.806816064E0
1.028873553E0,5.386841893E-1,7.867002487E0,5.827121258E0,9.804858538E0
1.031379594E0,5.530411601E-1,7.864609718E0,5.798407555E0,9.786698663E0
1.033885636E0,5.673980713E-1,7.888537884E0,5.781657696E0,9.796863591E0
1.036391730E0,5.793621540E-1,7.898109436E0,5.779264927E0,9.803861294E0
1.038897771E0,6.032904387E-1,7.898109436E0,5.791228771E0,9.812360710E0
1.041403813E0,6.487540603E-1,7.914859295E0,5.819942951E0,9.845690196E0
1.043909907E0,6.966105103E-1,7.912466049E0,5.836692810E0,9.856945173E0
1.046415949E0,7.420741320E-1,7.907680511E0,5.884549141E0,9.884837059E0
1.048922042E0,7.755736113E-1,7.912466049E0,5.920740604E0,9.912810031E0
1.051428084E0,8.042874932E-1,7.905287743E0,5.942276001E0,9.922252604E0
1.053934126E0,8.258228898E-1,7.910073280E0,5.963811398E0,9.940738862E0
1.056440219E0,8.353942037E-1,7.919644833E0,5.973382473E0,9.954896078E0
1.058946261E0,8.715856671E-1,7.922037601E0,5.978168488E0,9.962772696E0
1.061452303E0,9.194421172E-1,7.922037601E0,5.985346794E0,9.971380537E0
1.063958396E0,9.122636318E-1,7.934001446E0,5.963811398E0,9.967329144E0
1.066464438E0,9.074779749E-1,7.934001446E0,5.942276001E0,9.954021262E0
1.068970480E0,9.290133715E-1,7.929215908E0,5.930311680E0,9.945055424E0
1.071476574E0,9.314061999E-1,7.938787460E0,5.942276001E0,9.960045578E0
1.073982615E0,9.218349457E-1,7.938787460E0,5.959025860E0,9.969158199E0
1.076488709E0,9.074779749E-1,7.934001446E0,5.966204166E0,9.968324201E0
1.078994751E0,9.170492887E-1,7.912466049E0,5.968596935E0,9.953504295E0
1.081500792E0,8.955138922E-1,7.914859295E0,5.982954025E0,9.962062119E0
1.084006886E0,8.955138922E-1,7.922037601E0,5.990132332E0,9.972076526E0
1.086512928E0,8.859425783E-1,7.922037601E0,5.990132332E0,9.971221558E0
1.089018969E0,8.835497499E-1,7.898109436E0,5.978168488E0,9.944812280E0
1.091525063E0,8.596215248E-1,7.893323898E0,5.954239845E0,9.924539459E0
1.094031105E0,8.668000102E-1,7.878966808E0,5.959025860E0,9.916624901E0
1.096537146E0,8.377870321E-1,7.878966808E0,5.959025860E0,9.914131040E0
1.099043240E0,8.066803217E-1,7.893323898E0,5.951847076E0,9.918658121E0
1.101549282E0,7.755736113E-1,7.893323898E0,5.942276001E0,9.910434938E0
1.104055376E0,7.492526174E-1,7.871788502E0,5.930311680E0,9.884079640E0
1.106561417E0,7.181459069E-1,7.845467091E0,5.927918911E0,9.859376757E0
1.109067459E0,7.061817646E-1,7.845467091E0,5.913562298E0,9.849886578E0
1.111573553E0,6.894320250E-1,7.833503246E0,5.882156372E0,9.820328569E0
1.114079594E0,6.583253145E-1,7.826324463E0,5.884549141E0,9.813901641E0
1.116585636E0,6.559324861E-1,7.811967850E0,5.865406513E0,9.790816242E0
1.119091730E0,6.511468887E-1,7.811967850E0,5.860620975E0,9.787630570E0
1.121597771E0,6.343970895E-1,7.800003529E0,5.858228207E0,9.775548702E0
1.124103813E0,6.056832075E-1,7.783253670E0,5.867799282E0,9.766112750E0
1.126609907E0,5.841478109E-1,7.785646915E0,5.863013744E0,9.763834120E0
1.129115949E0,5.554339290E-1,7.783253670E0,5.848656654E0,9.751632130E0
1.131622042E0,5.338985324E-1,7.780860901E0,5.819942951E0,9.731319538E0
1.134128084E0,5.362913609E-1,7.749754429E0,5.791228771E0,9.689408280E0
1.136634126E0,5.386841893E-1,7.759325504E0,5.774479389E0,9.687204197E0
1.139140219E0,5.243272781E-1,7.754539967E0,5.757729530E0,9.672603503E0
1.141646261E0,5.338985324E-1,7.759325504E0,5.752943993E0,9.674117247E0
1.144152303E0,5.410770178E-1,7.764111042E0,5.738586903E0,9.669827519E0
1.146658396E0,5.410770178E-1,7.754539967E0,5.757729530E0,9.673525923E0
1.149164438E0,5.482555032E-1,7.742575645E0,5.769693375E0,9.671474725E0
1.151670532E0,5.602195859E-1,7.742575645E0,5.784050465E0,9.680731552E0
1.154176574E0,5.865406394E-1,7.749754429E0,5.779264927E0,9.685175617E0
1.156682615E0,5.817549825E-1,7.752147198E0,5.781657696E0,9.688229495E0
1.159188709E0,5.889334679E-1,7.764111042E0,5.786443233E0,9.701092114E0
1.161694751E0,5.865406394E-1,7.776075363E0,5.781657696E0,9.707674474E0
1.164200792E0,5.985047817E-1,7.761718273E0,5.769693375E0,9.689780192E0
1.166706886E0,6.200401783E-1,7.754539967E0,5.760122299E0,9.679687434E0
1.169212928E0,6.511468887E-1,7.764111042E0,5.757729530E0,9.687975118E0
1.171719021E0,6.559324861E-1,7.768897057E0,5.757729530E0,9.692133834E0
1.174225063E0,6.870391965E-1,7.783253670E0,5.779264927E0,9.718588562E0
1.176731105E0,6.990033388E-1,7.766504288E0,5.793622017E0,9.714589574E0
1.179237199E0,7.348956466E-1,7.776075363E0,5.810371399E0,9.734877270E0
1.181743240E0,7.540382147E-1,7.788039684E0,5.839085579E0,9.763045434E0
1.184249282E0,7.731808424E-1,7.783253670E0,5.882156372E0,9.786552503E0
1.186755376E0,7.899305820E-1,7.790432453E0,5.915955067E0,9.813936646E0
1.189261417E0,8.258228898E-1,7.807182312E0,5.925526142E0,9.835951360E0
1.191767459E0,8.377870321E-1,7.828717709E0,5.942276001E0,9.864144775E0
1.194273553E0,8.859425783E-1,7.852645874E0,5.942276001E0,9.887344717E0
1.196779594E0,8.955138922E-1,7.864609718E0,5.939883232E0,9.896274247E0
1.199285688E0,9.194421172E-1,7.876574039E0,5.915955067E0,9.893650325E0
1.201791730E0,9.314061999E-1,7.871788502E0,5.913562298E0,9.889529351E0
1.204297771E0,9.337990284E-1,7.900502205E0,5.915955067E0,9.914052656E0
1.206803865E0,9.457631707E-1,7.912466049E0,5.908776283E0,9.920444754E0
1.209309907E0,9.457631707E-1,7.922037601E0,5.903990746E0,9.925233219E0
1.211815949E0,9.625129104E-1,7.938787460E0,5.896812439E0,9.935953622E0
1.214322042E0,9.553344250E-1,7.943572998E0,5.877370834E0,9.927562831E0
1.216828084E0,9.505487680E-1,7.936394691E0,5.867799282E0,9.915693222E0
1.219334178E0,9.577272534E-1,7.938787460E0,5.843871117E0,9.904161623E0
1.221840219E0,9.649057388E-1,7.965108395E0,5.836692810E0,9.921742679E0
1.224346261E0,9.577272534E-1,7.977072716E0,5.827121258E0,9.925032633E0
1.226852355E0,9.553344250E-1,7.972286701E0,5.822335720E0,9.918145610E0
1.229358396E0,9.577272534E-1,7.974679470E0,5.805585861E0,9.910478361E0
1.231864438E0,9.625129104E-1,7.986643791E0,5.781657696E0,9.906587498E0
1.234370532E0,9.529415965E-1,7.984251022E0,5.767300606E0,9.895358425E0
1.236876574E0,9.409775138E-1,7.972286701E0,5.750551224E0,9.874797887E0
1.239382615E0,9.409775138E-1,7.965108395E0,5.767300606E0,9.878772530E0
1.241888709E0,9.122636318E-1,7.953144073E0,5.767300606E0,9.866432074E0
1.244394751E0,9.074779749E-1,7.945965767E0,5.776872158E0,9.865806615E0
1.246900844E0,9.074779749E-1,7.945965767E0,5.798407555E0,9.878431982E0
1.249406886E0,8.739784956E-1,7.929215908E0,5.827121258E0,9.878848388E0
1.251912928E0,8.811569214E-1,7.917252064E0,5.853442192E0,9.885449067E0
1.254419021E0,8.739784956E-1,7.924430370E0,5.865406513E0,9.897647633E0
1.256925063E0,8.548358679E-1,7.922037601E0,5.867799282E0,9.895478388E0
1.259431105E0,8.282157183E-1,7.943572998E0,5.858228207E0,9.904803429E0
1.261937199E0,8.114659786E-1,7.941180229E0,5.858228207E0,9.901497775E0
1.264443240E0,8.018946648E-1,7.934001446E0,5.841478348E0,9.885053530E0
1.266949334E0,7.875377536E-1,7.934001446E0,5.831906796E0,9.878245367E0
1.269455376E0,7.660023570E-1,7.924430370E0,5.841478348E0,9.874524069E0
1.271961417E0,7.516453862E-1,7.905287743E0,5.851049423E0,9.863737853E0
1.274467511E0,7.396813035E-1,7.907680511E0,5.855835438E0,9.867590799E0
1.276973553E0,7.301099896E-1,7.907680511E0,5.851049423E0,9.864038271E0
1.279479594E0,7.301099896E-1,7.910073280E0,5.843871117E0,9.861701148E0
1.281985688E0,7.109674215E-1,7.905287743E0,5.839085579E0,9.853627219E0
1.284491730E0,6.894320250E-1,7.895716667E0,5.839085579E0,9.844418652E0
1.286997824E0,6.774678826E-1,7.881359577E0,5.817550182E0,9.819301484E0
1.289503865E0,6.726822853E-1,7.893323898E0,5.774479389E0,9.803146221E0
1.292009907E0,6.655037999E-1,7.878966808E0,5.748157978E0,9.775598878E0
1.294516001E0,6.559324861E-1,7.869395256E0,5.717051506E0,9.748964409E0
1.297022042E0,6.391827464E-1,7.871788502E0,5.683551788E0,9.730178299E0
1.299528084E0,6.224330068E-1,7.876574039E0,5.662016392E0,9.720404882E0
1.302034178E0,6.320042610E-1,7.878966808E0,5.630909920E0,9.704879900E0
1.304540219E0,6.367899179E-1,7.888537884E0,5.602196217E0,9.696346415E0
1.307046313E0,6.343970895E-1,7.876574039E0,5.573482037E0,9.669880055E0
1.309552355E0,6.367899179E-1,7.881359577E0,5.561518192E0,9.667047884E0
1.312058396E0,6.463612318E-1,7.893323898E0,5.575874805E0,9.685696921E0
1.314564490E0,6.583253145E-1,7.907680511E0,5.568696499E0,9.694079842E0
1.317070532E0,6.846463680E-1,7.881359577E0,5.580660820E0,9.681340022E0
1.319576574E0,7.061817646E-1,7.883752346E0,5.595017433E0,9.693114248E0
1.322082667E0,7.277171612E-1,7.876574039E0,5.602196217E0,9.693017761E0
1.324588709E0,7.468597889E-1,7.907680511E0,5.611767292E0,9.725283685E0
1.327094751E0,7.779664397E-1,7.890930653E0,5.623731613E0,9.721027497E0
1.329600844E0,7.899305820E-1,7.907680511E0,5.642873764E0,9.746662286E0
1.332106886E0,8.018946648E-1,7.893323898E0,5.647659779E0,9.738770877E0
1.334612980E0,8.524430394E-1,7.900502205E0,5.654838085E0,9.753039936E0
1.337119021E0,8.835497499E-1,7.886145115E0,5.652445316E0,9.742796466E0
1.339625063E0,8.955138922E-1,7.869395256E0,5.664409637E0,9.737292404E0
1.342131157E0,9.314061999E-1,7.869395256E0,5.659623623E0,9.737876501E0
1.344637199E0,9.625129104E-1,7.881359577E0,5.664409637E0,9.753347960E0
1.347143292E0,9.816554785E-1,7.905287743E0,5.657230854E0,9.770439228E0
1.349649334E0,9.960124493E-1,7.900502205E0,5.650052547E0,9.763865509E0
1.352155376E0,1.007976532E0,7.905287743E0,5.642873764E0,9.764815170E0
1.354661469E0,1.003190875E0,7.900502205E0,5.638088226E0,9.757682403E0
1.357167511E0,1.034297585E0,7.895716667E0,5.606981754E0,9.739114825E0
1.359673553E0,1.063011408E0,7.890930653E0,5.587839127E0,9.727318537E0
1.362179646E0,1.091725349E0,7.905287743E0,5.556732178E0,9.724336020E0
1.364685688E0,1.098903775E0,7.907680511E0,5.544768333E0,9.720260102E0
1.367191730E0,1.101296663E0,7.895716667E0,5.520840168E0,9.697157944E0
1.369697824E0,1.110867858E0,7.864609718E0,5.492125988E0,9.656581242E0
1.372203865E0,1.125224829E0,7.850253105E0,5.472983360E0,9.635670791E0
1.374709959E0,1.122832060E0,7.826324463E0,5.463412285E0,9.610462019E0
1.377216001E0,1.098903775E0,7.795217991E0,5.468197823E0,9.585103049E0
1.379722042E0,1.091725349E0,7.778468132E0,5.496912003E0,9.587099263E0
1.382228136E0,1.106082320E0,7.771289825E0,5.504090309E0,9.587041972E0
1.384734178E0,1.096511006E0,7.737790108E0,5.513661385E0,9.564318794E0
1.387240219E0,1.094118118E0,7.716254711E0,5.532804012E0,9.557698544E0
1.389746261E0,1.077368379E0,7.699504852E0,5.544768333E0,9.549217427E0
1.392252355E0,1.067797065E0,7.709076405E0,5.532804012E0,9.548925061E0
1.394758396E0,1.046261668E0,7.701898098E0,5.539982796E0,9.544910014E0
1.397264490E0,1.017547846E0,7.713861942E0,5.566303730E0,9.566755296E0
1.399770532E0,9.816554785E-1,7.711469173E0,5.587839127E0,9.573627860E0
1.402276626E0,9.601200819E-1,7.694719315E0,5.595017433E0,9.562152267E0
1.404782667E0,9.290133715E-1,7.687541008E0,5.618945599E0,9.567335169E0
1.407288761E0,9.098708034E-1,7.680362701E0,5.650052547E0,9.578044158E0
1.409794803E0,8.931210637E-1,7.687541008E0,5.695516109E0,9.609102754E0
1.412300844E0,8.377870321E-1,7.697112083E0,5.719444275E0,9.625978618E0
1.414806938E0,7.995018363E-1,7.701898098E0,5.752943993E0,9.646491698E0
1.417312980E0,7.468597889E-1,7.723433495E0,5.788836002E0,9.680901133E0
1.419819021E0,7.133602500E-1,7.737790108E0,5.812764645E0,9.704149185E0
1.422325115E0,6.870391965E-1,7.718647480E0,5.812764645E0,9.686989966E0
1.424831157E0,6.463612318E-1,7.740182877E0,5.812764645E0,9.701363132E0
1.427337251E0,6.056832075E-1,7.744968891E0,5.776872158E0,9.681097417E0
1.429843292E0,5.793621540E-1,7.761718273E0,5.745765209E0,9.674386228E0
1.432349334E0,5.458626747E-1,7.766504288E0,5.724229813E0,9.663506706E0
1.434855428E0,5.051847100E-1,7.792825222E0,5.690730572E0,9.662698949E0
1.437361469E0,4.812564552E-1,7.811967850E0,5.657230854E0,9.657262055E0
1.439867511E0,4.549354017E-1,7.814360619E0,5.614160061E0,9.632756163E0
1.442373605E0,4.190430641E-1,7.847859859E0,5.599802971E0,9.649989367E0
1.444879646E0,3.951148391E-1,7.878966808E0,5.583053589E0,9.664611791E0
1.447385740E0,3.664009571E-1,7.888537884E0,5.554339409E0,9.654738001E0
1.449891782E0,3.400799036E-1,7.936394691E0,5.530411243E0,9.679228459E0
1.452397824E0,2.994019389E-1,7.960322857E0,5.499304771E0,9.679810663E0
1.454903917E0,2.608176768E-1,8.001000404E0,5.458626747E0,9.689202201E0
1.457409959E0,2.297109663E-1,8.041678429E0,5.417948723E0,9.699253963E0
1.459916001E0,1.962114573E-1,8.058428764E0,5.353342533E0,9.676520519E0
1.462422094E0,1.555334777E-1,8.070392609E0,5.305186749E0,9.659214976E0
1.464928136E0,9.571290761E-2,8.101499557E0,5.250152111E0,9.654405897E0
1.467434230E0,6.699903309E-2,8.106285095E0,5.199902534E0,9.630957028E0
1.469940271E0,5.264209956E-2,8.118248940E0,5.166403294E0,9.622913282E0
1.472446313E0,2.632104978E-2,8.156833649E0,5.137689114E0,9.640045508E0
1.474952407E0,-7.178467698E-3,8.168797493E0,5.125725269E0,9.643773304E0
1.477458449E0,-4.067798331E-2,8.197511673E0,5.106582642E0,9.658055633E0
1.479964490E0,-5.264209956E-2,8.219046593E0,5.075475693E0,9.660018198E0
1.482470584E0,-9.571290761E-2,8.231010437E0,5.063511848E0,9.664256102E0
1.484976626E0,-1.148554832E-1,8.252546310E0,5.061119080E0,9.681561792E0
1.487482719E0,-1.507478207E-1,8.276473999E0,5.046761990E0,9.694975675E0
1.489988761E0,-1.651047617E-1,8.300402641E0,5.039583683E0,9.711917797E0
1.492494803E0,-1.794617027E-1,8.309973717E0,5.018048286E0,9.709205852E0
1.495000896E0,-1.962114573E-1,8.329116821E0,4.996512890E0,9.714825115E0
1.497506938E0,-2.153540403E-1,8.355437279E0,4.991727352E0,9.735350607E0
1.500012980E0,-2.368894368E-1,8.360222816E0,5.008476734E0,9.748552782E0
1.502519074E0,-2.536391914E-1,8.360222816E0,5.018048286E0,9.753894965E0
1.505025115E0,-2.727817893E-1,8.357830048E0,5.022833824E0,9.754824070E0
1.507531209E0,-2.727817893E-1,8.348258972E0,5.025226593E0,9.747858231E0
1.510037251E0,-2.560320199E-1,8.338687897E0,5.041976452E0,9.747861036E0
1.512543292E0,-2.584248483E-1,8.338687897E0,5.053940296E0,9.754117682E0
1.515049386E0,-2.416750938E-1,8.343473434E0,5.077868938E0,9.770194919E0
1.517555428E0,-2.225325108E-1,8.345866203E0,5.101797104E0,9.784239219E0
1.520061469E0,-2.009970993E-1,8.329116821E0,5.118546963E0,9.778246769E0
1.522567563E0,-1.938186288E-1,8.324331284E0,5.113760948E0,9.771520251E0
1.525073605E0,-1.722832322E-1,8.333902359E0,5.116153717E0,9.780523447E0
1.527579699E0,-1.483550072E-1,8.333902359E0,5.132903576E0,9.788903762E0
1.530085740E0,-1.363908947E-1,8.321938515E0,5.149653435E0,9.787348651E0
1.532591782E0,-1.004985496E-1,8.341080666E0,5.166403294E0,9.812005382E0
1.535097876E0,-7.417750359E-2,8.345866203E0,5.195116997E0,9.830982941E0
1.537603917E0,-7.896314561E-2,8.374580383E0,5.228616714E0,9.873108149E0
1.540110011E0,-6.699903309E-2,8.391329765E0,5.276473045E0,9.912621848E0
1.542616053E0,-3.349951655E-2,8.388936996E0,5.312365532E0,9.929582755E0
1.545122094E0,-9.571290575E-3,8.393722534E0,5.336592674E0,9.946551712E0
1.547628188E0,-4.785645287E-3,8.386544228E0,5.350949764E0,9.948206389E0
1.550134230E0,9.571290575E-3,8.376973152E0,5.346164227E0,9.937567244E0
1.552640271E0,3.349951655E-2,8.381758690E0,5.346164227E0,9.941653428E0
1.555146365E0,4.067798331E-2,8.360222816E0,5.346164227E0,9.923530228E0
1.557652407E0,4.067798331E-2,8.341080666E0,5.350949764E0,9.909992167E0
1.560158501E0,6.699903309E-2,8.326724052E0,5.343770981E0,9.894175590E0
1.562664542E0,8.853443712E-2,8.309973717E0,5.336592674E0,9.876371950E0
1.565170584E0,1.028913707E-1,8.286046028E0,5.326722145E0,9.851046352E0
1.567676678E0,1.244267747E-1,8.269295692E0,5.309972763E0,9.828150590E0
1.570182719E0,1.316052526E-1,8.264510155E0,5.312365532E0,9.825511467E0
1.572688761E0,1.555334777E-1,8.250153542E0,5.286044121E0,9.799565632E0
1.575194855E0,1.842473447E-1,8.235795975E0,5.276473045E0,9.782814024E0
1.577700896E0,1.866401732E-1,8.242975235E0,5.242973328E0,9.770887605E0
1.580206990E0,2.177468538E-1,8.233403206E0,5.231009483E0,9.757038601E0
1.582713032E0,2.321037948E-1,8.199904442E0,5.211866856E0,9.718840525E0
1.585219074E0,2.488535494E-1,8.178368568E0,5.197509766E0,9.693386833E0
1.587725167E0,2.464607358E-1,8.147261620E0,5.171188831E0,9.652968907E0
1.590231209E0,2.727817893E-1,8.123034477E0,5.164010525E0,9.629387505E0
1.592737303E0,2.799602449E-1,8.118248940E0,5.132903576E0,9.608904345E0
1.595243344E0,2.874378264E-1,8.106285095E0,5.104189873E0,9.583696197E0
1.597749386E0,2.946162820E-1,8.077570915E0,5.089832783E0,9.551981386E0
1.600255480E0,3.161516786E-1,8.082356453E0,5.073082924E0,9.547806453E0
1.602761521E0,3.257229924E-1,8.053643227E0,5.058726311E0,9.516195489E0
1.605267563E0,3.400799036E-1,8.048856735E0,5.015655518E0,9.489812925E0
1.607773657E0,3.544368446E-1,8.044071198E0,5.001298428E0,9.478696792E0
1.610279699E0,3.568296731E-1,8.032107353E0,4.984548569E0,9.459799172E0
1.612785792E0,3.831507266E-1,8.027321815E0,4.982155800E0,9.455505086E0
1.615291834E0,3.807578981E-1,8.024929047E0,4.972584724E0,9.448336447E0
1.617797876E0,3.831507266E-1,8.022536278E0,4.963013172E0,9.441366032E0
1.620303969E0,3.807578981E-1,8.039285660E0,4.963013172E0,9.455505816E0
1.622810011E0,3.616153300E-1,8.029714584E0,4.946263313E0,9.437828284E0
1.625316105E0,3.664009571E-1,8.022536278E0,4.922335148E0,9.419380091E0
1.627822146E0,3.544368446E-1,8.020143509E0,4.922335148E0,9.416884341E0
1.630328188E0,3.616153300E-1,8.005785942E0,4.903192520E0,9.394927945E0
1.632834282E0,3.592225015E-1,8.001000404E0,4.900799751E0,9.389509384E0
1.635340324E0,3.281157911E-1,8.003393173E0,4.898406982E0,9.389161476E0
1.637846417E0,3.257229924E-1,8.003393173E0,4.872086048E0,9.375373071E0
1.640352459E0,3.233301640E-1,8.003393173E0,4.838586330E0,9.357925110E0
1.642858501E0,2.994019389E-1,8.003393173E0,4.812265396E0,9.343545475E0
1.645364594E0,2.751746178E-1,8.008178711E0,4.797908306E0,9.339516660E0
1.647870636E0,2.416750938E-1,8.001000404E0,4.756931305E0,9.311434356E0
1.650376678E0,2.249253243E-1,8.001000404E0,4.716253281E0,9.290298374E0
1.652882771E0,2.105683982E-1,8.003393173E0,4.694717884E0,9.281110782E0
1.655388813E0,2.033899277E-1,8.001000404E0,4.677968502E0,9.270424167E0
1.657894855E0,1.866401732E-1,8.020143509E0,4.646861553E0,9.270968598E0
1.660400949E0,1.555334777E-1,8.020143509E0,4.618147850E0,9.256034903E0
1.662906990E0,1.268195957E-1,8.041678429E0,4.599005222E0,9.264746310E0
1.665413084E0,1.148554832E-1,8.056035995E0,4.563112736E0,9.259314531E0
1.667919126E0,9.332008660E-2,8.058428764E0,4.527220249E0,9.243522379E0
1.670425167E0,1.028913707E-1,8.041678429E0,4.500899315E0,9.216141993E0
1.672931261E0,9.332008660E-2,8.051250458E0,4.491328239E0,9.219727324E0
1.675437303E0,7.657032460E-2,8.065607071E0,4.479363918E0,9.226298367E0
1.677943396E0,5.982056633E-2,8.087141991E0,4.455435753E0,9.233436621E0
1.680449438E0,4.067798331E-2,8.113463402E0,4.436293125E0,9.247196319E0
1.682955480E0,2.632104978E-2,8.132605553E0,4.407579422E0,9.250228226E0
1.685461574E0,1.196411345E-2,8.149654388E0,4.376472473E0,9.250433563E0
1.687967615E0,2.392822644E-3,8.187939644E0,4.364508629E0,9.278539589E0
1.690473709E0,-7.178467698E-3,8.231010437E0,4.335794449E0,9.303155263E0
1.692979751E0,-1.435693540E-2,8.259724617E0,4.297509670E0,9.310845624E0
1.695485792E0,-4.785645381E-2,8.302795410E0,4.278367043E0,9.340402904E0
1.697991886E0,-6.221338734E-2,8.353044510E0,4.287938118E0,9.389549318E0
1.700497928E0,-7.896314561E-2,8.381758690E0,4.278367043E0,9.410873417E0
1.703003969E0,-7.657032460E-2,8.412865639E0,4.278367043E0,9.438569586E0
1.705510063E0,-7.178468257E-2,8.436793327E0,4.261617184E0,9.452302138E0
1.708016105E0,-8.853443712E-2,8.477471352E0,4.232903481E0,9.475907911E0
1.710522199E0,-1.148554832E-1,8.496614456E0,4.211368084E0,9.483737140E0
1.713028240E0,-1.363908947E-1,8.525327682E0,4.170390606E0,9.491679113E0
1.715534282E0,-1.579262912E-1,8.546863556E0,4.129712582E0,9.493594860E0
1.718040376E0,-1.627119333E-1,8.558827400E0,4.108177185E0,9.495110396E0
1.720546417E0,-1.818545163E-1,8.582756042E0,4.110570431E0,9.518065014E0
1.723052511E0,-2.105683982E-1,8.606683731E0,4.072285175E0,9.523804410E0
1.725558553E0,-2.225325108E-1,8.592327118E0,4.045963764E0,9.499864673E0
1.728064594E0,-2.536391914E-1,8.601898193E0,4.014857292E0,9.496107858E0
1.730570688E0,-2.488535494E-1,8.625826836E0,3.976572037E0,9.501575756E0
1.733076730E0,-2.751746178E-1,8.625826836E0,3.945465326E0,9.489325914E0
1.735582771E0,-2.946162820E-1,8.628219604E0,3.916751623E0,9.480185419E0
1.738088865E0,-2.970091105E-1,8.630612373E0,3.909573078E0,9.479474986E0
1.740594907E0,-3.257229924E-1,8.618648529E0,3.883252144E0,9.458691514E0
1.743101001E0,-3.496512175E-1,8.640183449E0,3.883252144E0,9.479170492E0
1.745607042E0,-3.711866140E-1,8.654540062E0,3.871287823E0,9.488188056E0
1.748113084E0,-3.927220106E-1,8.673683167E0,3.873680830E0,9.507492489E0
1.750619178E0,-4.070789516E-1,8.678468704E0,3.878466368E0,9.514411894E0
1.753125219E0,-4.381856322E-1,8.666504860E0,3.880859137E0,9.505860338E0
1.755631313E0,-4.740779996E-1,8.664112091E0,3.880859137E0,9.505401407E0
1.758137355E0,-5.123631358E-1,8.692825317E0,3.876073599E0,9.531614476E0
1.760643396E0,-5.315057039E-1,8.680861473E0,3.868895054E0,9.518834129E0
1.763149490E0,-5.578267574E-1,8.676075935E0,3.868895054E0,9.515976737E0
1.765655532E0,-5.961119533E-1,8.678468704E0,3.888037682E0,9.528274006E0
1.768161574E0,-6.104688644E-1,8.678468704E0,3.923929930E0,9.543883768E0
1.770667667E0,-6.391827464E-1,8.685647011E0,3.947858334E0,9.562144320E0
1.773173709E0,-6.822535396E-1,8.690432549E0,3.978965044E0,9.582340559E0
1.775679803E0,-7.013961077E-1,8.702695847E0,4.014857292E0,9.609784107E0
1.778185844E0,-7.301099896E-1,8.719446182E0,4.045963764E0,9.640105036E0
1.780691886E0,-7.588238716E-1,8.762516975E0,4.067499161E0,9.690307881E0
1.783197980E0,-8.066803217E-1,8.788837433E0,4.089034557E0,9.727003659E0
1.785704021E0,-8.306085467E-1,8.819944382E0,4.072285175E0,9.750119794E0
1.788210115E0,-8.401798606E-1,8.839086533E0,4.060320854E0,9.763276006E0
1.790716157E0,-8.811569214E-1,8.855836868E0,4.036392689E0,9.772141531E0
1.793222199E0,-9.002995491E-1,8.870193481E0,3.990929127E0,9.768233565E0
1.795728292E0,-9.218349457E-1,8.867800713E0,3.943072557E0,9.748614791E0
1.798234334E0,-9.601200819E-1,8.889336586E0,3.900001764E0,9.754596315E0
1.800740428E0,-9.720842242E-1,8.901300430E0,3.852145433E0,9.747672621E0
1.803246469E0,-9.720842242E-1,8.901300430E0,3.818645954E0,9.734482730E0
1.805752511E0,-1.012762189E0,8.882157326E0,3.792324781E0,9.710825570E0
1.808258605E0,-1.046261668E0,8.886942863E0,3.763610840E0,9.707583813E0
1.810764646E0,-1.079761267E0,8.889336586E0,3.725325823E0,9.698672168E0
1.813270688E0,-1.125224829E0,8.910871506E0,3.684647799E0,9.708058061E0
1.815776782E0,-1.149153113E0,8.925228119E0,3.638885021E0,9.706788040E0
1.818282824E0,-1.180259824E0,8.937192917E0,3.574278831E0,9.697520284E0
1.820788917E0,-1.204187989E0,8.941978455E0,3.500101328E0,9.677797100E0
1.823294959E0,-1.232901812E0,8.949156761E0,3.445066452E0,9.668295427E0
1.825801001E0,-1.268794179E0,8.922835350E0,3.378067255E0,9.624872349E0
1.828307094E0,-1.326221943E0,8.908478737E0,3.327818155E0,9.601782737E0
1.830813136E0,-1.362114310E0,8.894122124E0,3.287140131E0,9.579460005E0
1.833319230E0,-1.390828133E0,8.886942863E0,3.260818958E0,9.567920183E0
1.835825271E0,-1.427019596E0,8.855836868E0,3.279961586E0,9.550936057E0
1.838331313E0,-1.458126307E0,8.822337151E0,3.325425386E0,9.540346908E0
1.840837407E0,-1.477268934E0,8.796015739E0,3.375674486E0,9.536634345E0
1.843343449E0,-1.494018674E0,8.760123253E0,3.440280676E0,9.529290757E0
1.845849542E0,-1.498804331E0,8.724231720E0,3.502494097E0,9.519774074E0
1.848355584E0,-1.496411443E0,8.709874153E0,3.574278831E0,9.532923168E0
1.850861626E0,-1.489233017E0,8.705088615E0,3.638885021E0,9.551851495E0
1.853367719E0,-1.465304732E0,8.707481384E0,3.706183195E0,9.576175849E0
1.855873761E0,-1.446162224E0,8.685647011E0,3.773182154E0,9.579600865E0
1.858379855E0,-1.434198022E0,8.692825317E0,3.835395575E0,9.608974720E0
1.860885896E0,-1.424626827E0,8.702695847E0,3.900001764E0,9.642431766E0
1.863391938E0,-1.390828133E0,8.714659691E0,3.943072557E0,9.665791101E0
1.865898032E0,-1.386042476E0,8.724231720E0,3.998107433E0,9.696298051E0
1.868404074E0,-1.388435364E0,8.748159409E0,4.048357010E0,9.738954784E0
1.870910115E0,-1.400399446E0,8.764909744E0,4.086641788E0,9.771663243E0
1.873416209E0,-1.410269856E0,8.803194046E0,4.129712582E0,9.825457368E0
1.875922251E0,-1.422233939E0,8.848658562E0,4.175176620E0,9.887042406E0
1.878428344E0,-1.434198022E0,8.877371788E0,4.213760853E0,9.930782162E0
1.880934386E0,-1.436590910E0,8.915657043E0,4.223331928E0,9.969416559E0
1.883440428E0,-1.450947881E0,8.956335068E0,4.244867325E0,1.001698988E1
1.885946521E0,-1.470090389E0,9.013762474E0,4.247260094E0,1.007215459E1
1.888452563E0,-1.491625786E0,9.087940216E0,4.264009953E0,1.014876277E1
1.890958657E0,-1.484447360E0,9.150154114E0,4.264009953E0,1.020346437E1
1.893464699E0,-1.489233017E0,9.229117393E0,4.264009953E0,1.027502816E1
1.895970740E0,-1.503589988E0,9.308379173E0,4.244867325E0,1.034048376E1
1.898476834E0,-1.505982757E0,9.389735222E0,4.235296249E0,1.041022795E1
1.900982876E0,-1.484447360E0,9.485447884E0,4.199104786E0,1.047901649E1
1.903488917E0,-1.474876046E0,9.597910881E0,4.153641224E0,1.056162336E1
1.905995011E0,-1.474876046E0,9.703194618E0,4.120141506E0,1.064437932E1
1.908501053E0,-1.472483277E0,9.810872078E0,4.069892406E0,1.072312651E1
1.911007146E0,-1.491625786E0,9.899705887E0,4.012464523E0,1.078559204E1
1.913513188E0,-1.508375525E0,9.959526062E0,3.964607954E0,1.082522389E1
1.916019230E0,-1.520339727E0,1.003848934E1,3.914358854E0,1.088140186E1
1.918525324E0,-1.534696579E0,1.011505985E1,3.854538202E0,1.093284932E1
1.921031365E0,-1.570588946E0,1.017488003E1,3.799503326E0,1.097411312E1
1.923537407E0,-1.599302888E0,1.021555805E1,3.751646757E0,1.099955678E1
1.926043501E0,-1.628016710E0,1.025862885E1,3.696611881E0,1.102519132E1
1.928549542E0,-1.656730533E0,1.029691410E1,3.677469254E0,1.105870590E1
1.931055636E0,-1.683051586E0,1.031844902E1,3.701397419E0,1.109068959E1
1.933561678E0,-1.702194214E0,1.032802105E1,3.758825302E0,1.112179174E1
1.936067771E0,-1.747657895E0,1.033519936E1,3.754039526E0,1.113388821E1
1.938573813E0,-1.771586061E0,1.030887794E1,3.694219112E0,1.109318424E1
1.941079855E0,-1.795514345E0,1.026580715E1,3.574278831E0,1.101753772E1
1.943585949E0,-1.836192250E0,1.021795082E1,3.442673683E0,1.093755562E1
1.946091990E0,-1.838585138E0,1.018923664E1,3.349353552E0,1.088205439E1
1.948598032E0,-1.891227245E0,1.015573788E1,3.246462107E0,1.082844719E1
1.951104126E0,-1.919941068E0,1.009352398E1,3.150749207E0,1.074674930E1
1.953610167E0,-1.936690807E0,1.002652550E1,3.054737091E0,1.065895884E1
1.956116261E0,-1.963011861E0,9.961918831E0,2.939881802E0,1.057053203E1
1.958622303E0,-1.965703845E0,9.897313118E0,2.856132984E0,1.048705365E1
1.961128396E0,-1.980060697E0,9.842277527E0,2.801098108E0,1.042291792E1
1.963634438E0,-2.011167526E0,9.794121742E0,2.753241539E0,1.037062942E1
1.966140480E0,-2.023131609E0,9.751050949E0,2.717349291E0,1.032279242E1
1.968646574E0,-2.039881229E0,9.712766647E0,2.702992201E0,1.028616149E1
1.971152615E0,-2.044667006E0,9.657731056E0,2.707777977E0,1.023642974E1
1.973658657E0,-2.049452543E0,9.602696419E0,2.702992201E0,1.018421333E1
1.976164751E0,-2.027917147E0,9.550054550E0,2.695813894E0,1.012834648E1
1.978670792E0,-2.011167526E0,9.495018959E0,2.712563515E0,1.007760788E1
1.981176886E0,-1.980060697E0,9.420842171E0,2.710170746E0,1.000089661E1
1.983682928E0,-1.955833435E0,9.349057198E0,2.712563515E0,9.929156849E0
1.986188969E0,-1.922333837E0,9.282057762E0,2.702992201E0,9.856882393E0
1.988695063E0,-1.879263043E0,9.209974289E0,2.674278498E0,9.772769386E0
1.991201105E0,-1.829013824E0,9.126225471E0,2.638386011E0,9.674418002E0
1.993707199E0,-1.793121457E0,9.066405296E0,2.580958366E0,9.595641492E0
1.996213240E0,-1.754836321E0,9.030512810E0,2.542673111E0,9.544359521E0
1.998719282E0,-1.721336842E0,8.999405861E0,2.494517565E0,9.496047823E0
2.001225376E0,-1.687837243E0,8.987442017E0,2.461018085E0,9.469927063E0
2.003731417E0,-1.661516190E0,8.977870941E0,2.415554523E0,9.444453734E0
2.006237459E0,-1.656730533E0,8.977870941E0,2.377269268E0,9.433892721E0
2.008743553E0,-1.649552107E0,8.985049248E0,2.367697954E0,9.437061287E0
2.011249594E0,-1.656730533E0,8.977870941E0,2.341377020E0,9.424912150E0
2.013755688E0,-1.673480392E0,9.004191399E0,2.322234392E0,9.448215278E0
2.016261730E0,-1.704586983E0,9.030512810E0,2.307877541E0,9.475340476E0
2.018767824E0,-1.728515267E0,9.054440498E0,2.271985054E0,9.493817665E0
2.021273865E0,-1.762014747E0,9.073583603E0,2.224128723E0,9.506911378E0
2.023779907E0,-1.790728688E0,9.083154678E0,2.190629244E0,9.513635721E0
2.026286001E0,-1.819442511E0,9.116654396E0,2.145165443E0,9.540728128E0
2.028792042E0,-1.838585138E0,9.126225471E0,2.087737799E0,9.540808969E0
2.031298136E0,-1.869691849E0,9.142974854E0,2.035095692E0,9.551510418E0
2.033804178E0,-1.867298961E0,9.159725189E0,1.999203324E0,9.559507565E0
2.036310219E0,-1.776371717E0,9.178867340E0,1.919941068E0,9.544279744E0
2.038816313E0,-1.764407635E0,9.217152596E0,1.855334878E0,9.566154075E0
2.041322355E0,-1.809871197E0,9.224330902E0,1.850549221E0,9.580628725E0
2.043828449E0,-1.857727647E0,9.221938133E0,1.869691849E0,9.591196096E0
2.046334490E0,-1.907976985E0,9.238688469E0,1.874477386E0,9.618077057E0
2.048840532E0,-1.953440547E0,9.253045082E0,1.848156333E0,9.635894099E0
2.051346626E0,-2.013560295E0,9.238688469E0,1.843370795E0,9.633576988E0
2.053852667E0,-2.068595171E0,9.243474007E0,1.845763564E0,9.650271542E0
2.056358761E0,-2.109273195E0,9.265308380E0,1.831406593E0,9.677242526E0
2.058864803E0,-2.159522533E0,9.262915611E0,1.821835399E0,9.684225700E0
2.061370844E0,-2.183450699E0,9.289237022E0,1.821835399E0,9.714755047E0
2.063876938E0,-2.228914261E0,9.327521324E0,1.817049742E0,9.760757276E0
2.066382980E0,-2.262413740E0,9.341878891E0,1.814656854E0,9.781727692E0
2.068889021E0,-2.300698996E0,9.389735222E0,1.797907114E0,9.833250398E0
2.071395115E0,-2.324627161E0,9.432806015E0,1.785943031E0,9.877819257E0
2.073901157E0,-2.360519648E0,9.459127426E0,1.764407635E0,9.907586940E0
2.076407251E0,-2.389233351E0,9.495018959E0,1.759621978E0,9.947868643E0
2.078913292E0,-2.425125837E0,9.538089752E0,1.759621978E0,9.997632767E0
2.081419334E0,-2.456232548E0,9.578767776E0,1.754836321E0,1.004317285E1
2.083925428E0,-2.492124796E0,9.612267494E0,1.766800404E0,1.008602776E1
2.086431469E0,-2.511267424E0,9.664909363E0,1.769193292E0,1.014135011E1
2.088937563E0,-2.547458887E0,9.739087105E0,1.750050664E0,1.021773173E1
2.091443605E0,-2.580958366E0,9.784550667E0,1.752443433E0,1.026985082E1
2.093949646E0,-2.619243383E0,9.806086540E0,1.750050664E0,1.029963332E1
2.096455740E0,-2.650350094E0,9.854242325E0,1.735693693E0,1.035099416E1
2.098961782E0,-2.676671267E0,9.899705887E0,1.702194214E0,1.039548993E1
2.101467876E0,-2.722134829E0,9.935597420E0,1.675873160E0,1.043717706E1
2.103973917E0,-2.760420084E0,9.981060982E0,1.654337764E0,1.048705539E1
2.106479959E0,-2.801098108E0,9.990633011E0,1.613659739E0,1.050060933E1
2.108986053E0,-2.839383125E0,1.002891827E1,1.570588946E0,1.054078023E1
2.111492094E0,-2.894418001E0,1.006480980E1,1.525125384E0,1.058319703E1
2.113998188E0,-2.925524712E0,1.005523872E1,1.470090389E0,1.057486106E1
2.116504230E0,-2.999702215E0,1.005523872E1,1.434198022E0,1.059070173E1
2.119010271E0,-3.042773008E0,1.005763149E1,1.388435364E0,1.059915900E1
2.121516365E0,-3.088535786E0,1.005523872E1,1.364507079E0,1.060701460E1
2.124022407E0,-3.138785124E0,1.005045319E1,1.335793257E0,1.061357267E1
2.126528501E0,-3.203391314E0,1.002652550E1,1.299900889E0,1.060578483E1
2.129034542E0,-3.246462107E0,9.976275444E0,1.268794179E0,1.056765947E1
2.131540584E0,-3.291925669E0,9.952347755E0,1.232901812E0,1.055490632E1
2.134046678E0,-3.361317635E0,9.914062500E0,1.208973646E0,1.053796512E1
2.136552719E0,-3.411566973E0,9.887741089E0,1.194616675E0,1.052774060E1
2.139058813E0,-3.442673683E0,9.835099220E0,1.182652593E0,1.048712763E1
2.141564855E0,-3.480958700E0,9.796515465E0,1.177866936E0,1.046308555E1
2.144070896E0,-3.519243956E0,9.765408516E0,1.177866936E0,1.044680104E1
2.146576990E0,-3.550350666E0,9.729516029E0,1.187438250E0,1.042489720E1
2.149083032E0,-3.593421459E0,9.679266930E0,1.218544960E0,1.039642909E1
2.151589126E0,-3.581457376E0,9.617053032E0,1.252044439E0,1.033838291E1
2.154095167E0,-3.540779352E0,9.571589470E0,1.259222865E0,1.028290259E1
2.156601209E0,-3.478565931E0,9.533304214E0,1.268794179E0,1.022712808E1
2.159107303E0,-3.401995659E0,9.514162064E0,1.271187067E0,1.018375033E1
2.161613344E0,-3.325425386E0,9.490233421E0,1.297508121E0,1.013935460E1
2.164119438E0,-3.239283562E0,9.480662346E0,1.326221943E0,1.010617540E1
2.166625480E0,-3.129213810E0,9.459127426E0,1.342971683E0,1.005338966E1
2.169131521E0,-3.018844843E0,9.442377090E0,1.369292736E0,1.000734090E1
2.171637615E0,-2.925524712E0,9.437591553E0,1.412662625E0,9.981104390E0
2.174143657E0,-2.846561670E0,9.411270142E0,1.441376567E0,9.937428512E0
2.176649751E0,-2.777169704E0,9.401699066E0,1.460519075E0,9.911494987E0
2.179155792E0,-2.731706142E0,9.394520760E0,1.494018674E0,9.897036453E0
2.181661834E0,-2.717349291E0,9.387342453E0,1.532303810E0,9.892125174E0
2.184167928E0,-2.683849812E0,9.368199348E0,1.558624864E0,9.868916876E0
2.186673969E0,-2.667099953E0,9.368199348E0,1.565803289E0,9.865511701E0
2.189180063E0,-2.647957325E0,9.346664429E0,1.575374603E0,9.841423631E0
2.191686105E0,-2.647957325E0,9.315557480E0,1.580160260E0,9.812654870E0
2.194192146E0,-2.657528639E0,9.313164711E0,1.596910000E0,9.815682195E0
2.196698240E0,-2.664707184E0,9.303593636E0,1.587338686E0,9.806995616E0
2.199204282E0,-2.662314177E0,9.301200867E0,1.592124343E0,9.804851568E0
2.201710376E0,-2.688635349E0,9.298808098E0,1.584945917E0,9.808600595E0
2.204216417E0,-2.695813894E0,9.294022560E0,1.565803289E0,9.802959137E0
2.206722459E0,-2.693420887E0,9.305986404E0,1.534696579E0,9.808730429E0
2.209228553E0,-2.686242580E0,9.305986404E0,1.529910922E0,9.806013950E0
2.211734594E0,-2.674278498E0,9.315557480E0,1.501197100E0,9.807393608E0
2.214240688E0,-2.669492722E0,9.339486122E0,1.482054472E0,9.825918678E0
2.216746730E0,-2.724527597E0,9.346664429E0,1.474876046E0,9.846747987E0
2.219252771E0,-2.738884687E0,9.372985840E0,1.443769336E0,9.871110514E0
2.221758865E0,-2.746062994E0,9.406484604E0,1.427019596E0,9.902484511E0
2.224264907E0,-2.781955481E0,9.430413246E0,1.417448282E0,9.933837623E0
2.226771001E0,-2.796312332E0,9.449555397E0,1.393221021E0,9.952613962E0
2.229277042E0,-2.829811811E0,9.480662346E0,1.378864050E0,9.989597563E0
2.231783084E0,-2.860918522E0,9.514162064E0,1.357328653E0,1.002728655E1
2.234289178E0,-2.884846687E0,9.526125908E0,1.326221943E0,1.004132859E1
2.236795219E0,-2.901596546E0,9.559625626E0,1.283151150E0,1.007234737E1
2.239301313E0,-2.908775091E0,9.573982239E0,1.252044439E0,1.008413227E1
2.241807355E0,-2.923131943E0,9.573982239E0,1.220937729E0,1.008446951E1
2.244313449E0,-2.920739174E0,9.583553314E0,1.189831018E0,1.008914810E1
2.246819490E0,-2.913560629E0,9.593125343E0,1.156331539E0,1.009227388E1
2.249325532E0,-2.908775091E0,9.593125343E0,1.125224829E0,1.008737614E1
2.251831626E0,-2.911167860E0,9.609874725E0,1.108475089E0,1.010214371E1
2.254337667E0,-2.892025232E0,9.609874725E0,1.082154036E0,1.009378817E1
2.256843709E0,-2.875275612E0,9.597910881E0,1.048654556E0,1.007406470E1
2.259349803E0,-2.870489836E0,9.593125343E0,1.024726272E0,1.006567582E1
2.261855844E0,-2.829811811E0,9.585947037E0,1.005583763E0,1.004536780E1
2.264361938E0,-2.808276415E0,9.578767776E0,9.936196208E-1,1.003127552E1
2.266867980E0,-2.762812853E0,9.566803932E0,9.936196208E-1,1.000720502E1
2.269374021E0,-2.724527597E0,9.542876244E0,1.003190875E0,9.974764637E0
2.271880115E0,-2.681456804E0,9.530911446E0,1.012762189E0,9.952596185E0
2.274386157E0,-2.647957325E0,9.521340370E0,1.017547846E0,9.934938553E0
2.276892251E0,-2.631207705E0,9.518947601E0,1.034297585E0,9.929923913E0
2.279398292E0,-2.597707987E0,9.514162064E0,1.065404296E0,9.919801050E0
2.281904334E0,-2.564208508E0,9.499805450E0,1.106082320E0,9.901761811E0
2.284410428E0,-2.552244425E0,9.495018959E0,1.127617717E0,9.896507381E0
2.286916469E0,-2.537887573E0,9.495018959E0,1.161117196E0,9.896688917E0
2.289422563E0,-2.518445730E0,9.502198219E0,1.185045362E0,9.901447995E0
2.291928605E0,-2.496910334E0,9.504590988E0,1.187438250E0,9.898576699E0
2.294434646E0,-2.461018085E0,9.487840652E0,1.220937729E0,9.877571523E0
2.296940740E0,-2.458625317E0,9.485447884E0,1.266401410E0,9.880401436E0
2.299446782E0,-2.441875458E0,9.487840652E0,1.285543919E0,9.881017112E0
2.301952876E0,-2.422732830E0,9.499805450E0,1.290329576E0,9.888421936E0
2.304458917E0,-2.408375978E0,9.499805450E0,1.295115232E0,9.885540042E0
2.306964959E0,-2.410768747E0,9.478269577E0,1.302293777E0,9.866375688E0
2.309471053E0,-2.403590441E0,9.471091270E0,1.319043517E0,9.859953989E0
2.311977094E0,-2.410768747E0,9.466305733E0,1.316650629E0,9.856790505E0
2.314483188E0,-2.405983210E0,9.459127426E0,1.323829174E0,9.849688856E0
2.316989230E0,-2.410768747E0,9.478269577E0,1.323829174E0,9.869241299E0
2.319495271E0,-2.394019127E0,9.478269577E0,1.319043517E0,9.864522166E0
2.322001365E0,-2.384447813E0,9.478269577E0,1.319043517E0,9.862203676E0
2.324507407E0,-2.403590441E0,9.478269577E0,1.316650629E0,9.866529788E0
2.327013501E0,-2.408375978E0,9.483055115E0,1.290329576E0,9.868817537E0
2.329519542E0,-2.410768747E0,9.473484039E0,1.275972724E0,9.858337192E0
2.332025584E0,-2.425125837E0,9.447162628E0,1.256830096E0,9.834110989E0
2.334531678E0,-2.413161755E0,9.418449402E0,1.228116274E0,9.799939202E0
2.337037719E0,-2.429911375E0,9.408877373E0,1.213759303E0,9.793092175E0
2.339543813E0,-2.429911375E0,9.387342453E0,1.175474167E0,9.767722720E0
2.342049855E0,-2.432304144E0,9.375378609E0,1.189831018E0,9.758561644E0
2.344555896E0,-2.420340061E0,9.351449966E0,1.199402332E0,9.733767433E0
2.347061990E0,-2.439482689E0,9.339486122E0,1.173081279E0,9.723846795E0
2.349568032E0,-2.437089920E0,9.329915047E0,1.161117196E0,9.712616290E0
2.352074126E0,-2.420340061E0,9.317950249E0,1.139581800E0,9.694374117E0
2.354580167E0,-2.420340061E0,9.310771942E0,1.130010486E0,9.686353487E0
2.357086261E0,-2.446661234E0,9.291629791E0,1.137188911E0,9.675419060E0
2.359592303E0,-2.468196630E0,9.279664993E0,1.132403374E0,9.668842454E0
2.362098344E0,-2.472982168E0,9.286844254E0,1.132403374E0,9.676954810E0
2.364604438E0,-2.470589399E0,9.279664993E0,1.130010486E0,9.669173598E0
2.367110480E0,-2.484946251E0,9.274879456E0,1.122832060E0,9.667424612E0
2.369616574E0,-2.496910334E0,9.286844254E0,1.118046403E0,9.681428880E0
2.372122615E0,-2.508874655E0,9.277272224E0,1.125224829E0,9.676175013E0
2.374628657E0,-2.537887573E0,9.289237022E0,1.118046403E0,9.694370818E0
2.377134751E0,-2.554637194E0,9.294022560E0,1.106082320E0,9.701981480E0
2.379640792E0,-2.576172590E0,9.303593636E0,1.098903775E0,9.716023325E0
2.382146886E0,-2.585743904E0,9.315557480E0,1.089332461E0,9.728942795E0
2.384652928E0,-2.590529680E0,9.320343018E0,1.086939692E0,9.734530080E0
2.387158969E0,-2.571387053E0,9.337093353E0,1.074975610E0,9.744173450E0
2.389665063E0,-2.595315218E0,9.337093353E0,1.072582722E0,9.750251641E0
2.392171105E0,-2.604886532E0,9.344271660E0,1.048654556E0,9.757075539E0
2.394677146E0,-2.631207705E0,9.365806580E0,1.022333503E0,9.781960574E0
2.397183240E0,-2.635993242E0,9.382556915E0,1.015154958E0,9.798539393E0
2.399689282E0,-2.640778780E0,9.404091835E0,9.912267923E-1,9.818003176E0
2.402195376E0,-2.624029160E0,9.416056633E0,9.720842242E-1,9.823064658E0
2.404701417E0,-2.624029160E0,9.454340935E0,9.505487680E-1,9.857668817E0
2.407207511E0,-2.624029160E0,9.495018959E0,9.529415965E-1,9.896919306E0
2.409713553E0,-2.640778780E0,9.511769295E0,9.218349457E-1,9.914496828E0
2.412219594E0,-2.650350094E0,9.535696983E0,8.979067206E-1,9.937812086E0
2.414725688E0,-2.655135870E0,9.557232857E0,8.691928387E-1,9.957205560E0
2.417231730E0,-2.650350094E0,9.569196701E0,8.500502706E-1,9.965764727E0
2.419737824E0,-2.638386011E0,9.588339806E0,8.476574421E-1,9.980774725E0
2.422243865E0,-2.628814697E0,9.597910881E0,8.353942037E-1,9.986412943E0
2.424749959E0,-2.631207705E0,9.593125343E0,8.377870321E-1,9.982644687E0
2.427256001E0,-2.628814697E0,9.590732574E0,8.548358679E-1,9.981160373E0
2.429762042E0,-2.621636391E0,9.581160545E0,8.739784956E-1,9.971732707E0
2.432268136E0,-2.621636391E0,9.576375008E0,8.907282352E-1,9.968617379E0
2.434774178E0,-2.612065077E0,9.559625626E0,9.146564603E-1,9.952181796E0
2.437280219E0,-2.626421928E0,9.542876244E0,9.529415965E-1,9.943474083E0
2.439786313E0,-2.592922449E0,9.523733139E0,9.840483069E-1,9.919329151E0
2.442292355E0,-2.588136673E0,9.495018959E0,1.029511929E0,9.895136749E0
2.444798449E0,-2.592922449E0,9.492626190E0,1.063011408E0,9.897635681E0
2.447304490E0,-2.585743904E0,9.483055115E0,1.106082320E0,9.891300417E0
2.449810532E0,-2.597707987E0,9.475876808E0,1.146760225E0,9.892188185E0
2.452316626E0,-2.597707987E0,9.466305733E0,1.173081279E0,9.886108977E0
2.454822667E0,-2.578565598E0,9.439984322E0,1.208973646E0,9.860219156E0
2.457328761E0,-2.588136673E0,9.437591553E0,1.240080357E0,9.864298507E0
2.459834803E0,-2.602493763E0,9.428020477E0,1.275972724E0,9.863500915E0
2.462340844E0,-2.604886532E0,9.432806015E0,1.290329576E0,9.870573113E0
2.464846938E0,-2.614457846E0,9.449555397E0,1.314257860E0,9.892257617E0
2.467352980E0,-2.609672308E0,9.435198784E0,1.326221943E0,9.878877987E0
2.469859074E0,-2.612065077E0,9.437591553E0,1.331007600E0,9.882438946E0
2.472365115E0,-2.600100994E0,9.430413246E0,1.352542996E0,9.875352740E0
2.474871209E0,-2.621636391E0,9.423234940E0,1.362114310E0,9.875509581E0
2.477377251E0,-2.631207705E0,9.401699066E0,1.352542996E0,9.856194594E0
2.479883292E0,-2.624029160E0,9.399306297E0,1.347757339E0,9.851341926E0
2.482389386E0,-2.647957325E0,9.392127991E0,1.338186026E0,9.849593293E0
2.484895428E0,-2.626421928E0,9.384949684E0,1.333400369E0,9.836327021E0
2.487401521E0,-2.626421928E0,9.370592117E0,1.319043517E0,9.820690636E0
2.489907563E0,-2.624029160E0,9.346664429E0,1.299900889E0,9.794662184E0
2.492413605E0,-2.624029160E0,9.334700584E0,1.283151150E0,9.781034756E0
2.494919699E0,-2.612065077E0,9.334700584E0,1.268794179E0,9.775958144E0
2.497425740E0,-2.612065077E0,9.329915047E0,1.254437327E0,9.769534879E0
2.499931834E0,-2.612065077E0,9.296415329E0,1.242473125E0,9.736013630E0
2.502437876E0,-2.607279301E0,9.291629791E0,1.211366415E0,9.726237614E0
2.504943969E0,-2.595315218E0,9.282057762E0,1.175474167E0,9.709479744E0
2.507450011E0,-2.585743904E0,9.260522842E0,1.168295622E0,9.685466923E0
2.509956053E0,-2.573779821E0,9.274879456E0,1.139581800E0,9.692593985E0
2.512462146E0,-2.554637194E0,9.270093918E0,1.106082320E0,9.679061449E0
2.514968188E0,-2.528316259E0,9.245866776E0,1.091725349E0,9.647294946E0
2.517474282E0,-2.513660192E0,9.233902931E0,1.060618639E0,9.628518204E0
2.519980324E0,-2.494517565E0,9.233902931E0,1.058225870E0,9.623275077E0
2.522486365E0,-2.468196630E0,9.257830620E0,1.067797065E0,9.640519331E0
2.524992459E0,-2.461018085E0,9.277272224E0,1.077368379E0,9.658421847E0
2.527498501E0,-2.461018085E0,9.274879456E0,1.082154036E0,9.656658650E0
2.530004594E0,-2.427518606E0,9.267701149E0,1.106082320E0,9.643990319E0
2.532510636E0,-2.420340061E0,9.270093918E0,1.122832060E0,9.646421051E0
2.535016678E0,-2.396411896E0,9.284450531E0,1.141974568E0,9.656496132E0
2.537522771E0,-2.377269268E0,9.279664993E0,1.151545882E0,9.648297750E0
2.540028813E0,-2.379662037E0,9.282057762E0,1.158724308E0,9.652047955E0
2.542534907E0,-2.374876499E0,9.296415329E0,1.211366415E0,9.671131524E0
2.545040949E0,-2.338984251E0,9.308379173E0,1.235294700E0,9.676917027E0
2.547546990E0,-2.336591244E0,9.294022560E0,1.252044439E0,9.664684644E0
2.550053084E0,-2.331805706E0,9.308379173E0,1.292722464E0,9.682684135E0
2.552559126E0,-2.329412937E0,9.296415329E0,1.328614831E0,9.675470013E0
2.555065219E0,-2.327019930E0,9.313164711E0,1.347757339E0,9.693632370E0
2.557571261E0,-2.324627161E0,9.315557480E0,1.371685624E0,9.698712494E0
2.560077303E0,-2.307877541E0,9.317950249E0,1.374078393E0,9.697349484E0
2.562583396E0,-2.300698996E0,9.303593636E0,1.388435364E0,9.683895041E0
2.565089438E0,-2.305484533E0,9.313164711E0,1.412662625E0,9.697727134E0
2.567595532E0,-2.312663078E0,9.337093353E0,1.417448282E0,9.723110739E0
2.570101574E0,-2.307877541E0,9.344271660E0,1.424626827E0,9.729916402E0
2.572607667E0,-2.312663078E0,9.341878891E0,1.422233939E0,9.728404859E0
2.575113709E0,-2.305484533E0,9.337093353E0,1.419841170E0,9.721754994E0
2.577619751E0,-2.300698996E0,9.361021042E0,1.422233939E0,9.743956085E0
2.580125844E0,-2.312663078E0,9.370592117E0,1.419841170E0,9.755632019E0
2.582631886E0,-2.295913219E0,9.377771378E0,1.405484200E0,9.756495239E0
2.585137980E0,-2.300698996E0,9.394520760E0,1.381256819E0,9.770266453E0
2.587644021E0,-2.317448616E0,9.401699066E0,1.354935765E0,9.777441605E0
2.590150063E0,-2.322234392E0,9.416056633E0,1.331007600E0,9.789099873E0
2.592656157E0,-2.331805706E0,9.444769859E0,1.319043517E0,9.817375991E0
2.595162199E0,-2.329412937E0,9.456734657E0,1.311864972E0,9.827358990E0
2.597668292E0,-2.312663078E0,9.463912964E0,1.295115232E0,9.828091502E0
2.600174334E0,-2.319841623E0,9.490233421E0,1.268794179E0,9.851702097E0
2.602680376E0,-2.343769789E0,9.528518677E0,1.256830096E0,9.892701698E0
2.605186469E0,-2.343769789E0,9.528518677E0,1.242473125E0,9.890887951E0
2.607692511E0,-2.341377020E0,9.535696983E0,1.218544960E0,9.894261727E0
2.610198605E0,-2.365305185E0,9.552447319E0,1.189831018E0,9.912598865E0
2.612704646E0,-2.384447813E0,9.562018394E0,1.177866936E0,9.924976457E0
2.615210688E0,-2.391626120E0,9.569196701E0,1.156331539E0,9.931087736E0
2.617716782E0,-2.396411896E0,9.576375008E0,1.153938770E0,9.938879361E0
2.620222824E0,-2.415554523E0,9.566803932E0,1.132403374E0,9.931816477E0
2.622728917E0,-2.432304144E0,9.566803932E0,1.149153113E0,9.937826412E0
2.625234959E0,-2.444268227E0,9.554840088E0,1.141974568E0,9.928419924E0
2.627741053E0,-2.456232548E0,9.550054550E0,1.127617717E0,9.925126798E0
2.630247094E0,-2.470589399E0,9.538089752E0,1.137188911E0,9.918274382E0
2.632753136E0,-2.489732027E0,9.521340370E0,1.149153113E0,9.908341985E0
2.635259230E0,-2.518445730E0,9.518947601E0,1.151545882E0,9.913576058E0
2.637765271E0,-2.537887573E0,9.506983757E0,1.153938770E0,9.907330023E0
2.640271365E0,-2.554637194E0,9.504590988E0,1.151545882E0,9.909060448E0
2.642777407E0,-2.578565598E0,9.492626190E0,1.161117196E0,9.904905132E0
2.645283449E0,-2.604886532E0,9.475876808E0,1.170688510E0,9.896877625E0
2.647789542E0,-2.624029160E0,9.471091270E0,1.177866936E0,9.898205363E0
2.650295584E0,-2.624029160E0,9.463912964E0,1.185045362E0,9.892194404E0
2.652801678E0,-2.645564556E0,9.468698502E0,1.194616675E0,9.903654484E0
2.655307719E0,-2.664707184E0,9.444769859E0,1.201795220E0,9.886791887E0
2.657813761E0,-2.671885490E0,9.411270142E0,1.216152072E0,9.858499055E0
2.660319855E0,-2.695813894E0,9.406484604E0,1.216152072E0,9.860445782E0
2.662825896E0,-2.722134829E0,9.387342453E0,1.225723386E0,9.850614913E0
2.665331990E0,-2.734098911E0,9.368199348E0,1.232901812E0,9.836589997E0
2.667838032E0,-2.753241539E0,9.349057198E0,1.249651670E0,9.825825093E0
2.670344126E0,-2.769991398E0,9.317950249E0,1.247258782E0,9.800648124E0
2.672850167E0,-2.786741018E0,9.289237022E0,1.252044439E0,9.778725134E0
2.675356209E0,-2.789133787E0,9.272486687E0,1.264008522E0,9.765039385E0
2.677862303E0,-2.791526794E0,9.248259544E0,1.280758262E0,9.744909859E0
2.680368344E0,-2.803490877E0,9.219545364E0,1.273579836E0,9.720163755E0
2.682874438E0,-2.810669184E0,9.212367058E0,1.268794179E0,9.714803484E0
2.685380480E0,-2.820240498E0,9.200403214E0,1.268794179E0,9.706235852E0
2.687886574E0,-2.820240498E0,9.202795982E0,1.261615753E0,9.707568422E0
2.690392615E0,-2.825026274E0,9.200403214E0,1.252044439E0,9.705452489E0
2.692898657E0,-2.808276415E0,9.198010445E0,1.261615753E0,9.699561169E0
2.695404751E0,-2.801098108E0,9.195617676E0,1.228116274E0,9.690913509E0
2.697910792E0,-2.793919563E0,9.202795982E0,1.197009563E0,9.691763117E0
2.700416834E0,-2.791526794E0,9.190832138E0,1.170688510E0,9.676493622E0
2.702922928E0,-2.765205622E0,9.186046600E0,1.149153113E0,9.661799374E0
2.705428969E0,-2.758027315E0,9.171689034E0,1.134796143E0,9.644395092E0
2.707935063E0,-2.741277456E0,9.169296265E0,1.115653515E0,9.635106582E0
2.710441105E0,-2.712563515E0,9.157332420E0,1.086939692E0,9.612292951E0
2.712947146E0,-2.691028118E0,9.152546883E0,1.098903775E0,9.603037867E0
2.715453240E0,-2.669492722E0,9.142974854E0,1.091725349E0,9.587076969E0
2.717959282E0,-2.633600473E0,9.119047165E0,1.082154036E0,9.553215689E0
2.720465376E0,-2.592922449E0,9.135796547E0,1.096511006E0,9.559726030E0
2.722971417E0,-2.552244425E0,9.123832703E0,1.103689432E0,9.538155228E0
2.725477511E0,-2.540280342E0,9.111868858E0,1.106082320E0,9.523791073E0
2.727983553E0,-2.520838737E0,9.121439934E0,1.101296663E0,9.527231956E0
2.730489594E0,-2.504088879E0,9.123832703E0,1.120439172E0,9.527337941E0
2.732995688E0,-2.470589399E0,9.090332985E0,1.144367456E0,9.489338366E0
2.735501730E0,-2.472982168E0,9.080761909E0,1.158724308E0,9.482537618E0
2.738007824E0,-2.434697151E0,9.068798065E0,1.206580877E0,9.467137159E0
2.740513865E0,-2.408375978E0,9.061619759E0,1.237687469E0,9.457541846E0
2.743019959E0,-2.396411896E0,9.059226990E0,1.271187067E0,9.456653752E0
2.745526001E0,-2.389233351E0,9.032905579E0,1.314257860E0,9.435522928E0
2.748032042E0,-2.379662037E0,9.013762474E0,1.362114310E0,9.421574218E0
2.750538136E0,-2.358126640E0,9.032905579E0,1.400399446E0,9.440088085E0
2.753044178E0,-2.327019930E0,9.030512810E0,1.429412484E0,9.434426501E0
2.755550271E0,-2.329412937E0,9.052047729E0,1.450947881E0,9.458910216E0
2.758056313E0,-2.341377020E0,9.047262192E0,1.477268934E0,9.461359470E0
2.760562355E0,-2.338984251E0,9.049654961E0,1.486840129E0,9.464554707E0
2.763068449E0,-2.358126640E0,9.052047729E0,1.505982757E0,9.474614156E0
2.765574490E0,-2.370090723E0,9.047262192E0,1.522732496E0,9.475705644E0
2.768080584E0,-2.377269268E0,9.054440498E0,1.520339727E0,9.483972522E0
2.770586626E0,-2.386840582E0,9.047262192E0,1.525125384E0,9.480293696E0
2.773092667E0,-2.420340061E0,9.054440498E0,1.525125384E0,9.495627741E0
2.775598761E0,-2.441875458E0,9.066405296E0,1.525125384E0,9.512542677E0
2.778104803E0,-2.458625317E0,9.078369141E0,1.505982757E0,9.525209119E0
2.780610896E0,-2.477767944E0,9.075976372E0,1.501197100E0,9.527133557E0
2.783116938E0,-2.508874655E0,9.080761909E0,1.477268934E0,9.536089995E0
2.785623032E0,-2.535494804E0,9.097511292E0,1.479661703E0,9.559437450E0
2.788129074E0,-2.559422970E0,9.140582085E0,1.458126307E0,9.603489944E0
2.790635115E0,-2.578565598E0,9.169296265E0,1.436590910E0,9.632693703E0
2.793141209E0,-2.597707987E0,9.205188751E0,1.407876968E0,9.667766251E0
2.795647251E0,-2.614457846E0,9.226723671E0,1.381256819E0,9.688946791E0
2.798153344E0,-2.640778780E0,9.250652313E0,1.354935765E0,9.715149598E0
2.800659386E0,-2.657528639E0,9.296415329E0,1.328614831E0,9.759662587E0
2.803165428E0,-2.683849812E0,9.317950249E0,1.323829174E0,9.786713970E0
2.805671521E0,-2.722134829E0,9.320343018E0,1.314257860E0,9.798269526E0
2.808177563E0,-2.746062994E0,9.339486122E0,1.302293777E0,9.821549372E0
2.810683657E0,-2.767598391E0,9.358628273E0,1.290329576E0,9.844210198E0
2.813189699E0,-2.781955481E0,9.372985840E0,1.285543919E0,9.861275932E0
2.815695792E0,-2.815454960E0,9.365806580E0,1.275972724E0,9.862718992E0
2.818201834E0,-2.827419043E0,9.375378609E0,1.259222865E0,9.873077774E0
2.820707876E0,-2.832204819E0,9.375378609E0,1.261615753E0,9.874754807E0
2.823213969E0,-2.851347208E0,9.382556915E0,1.271187067E0,9.888299739E0
2.825720011E0,-2.851347208E0,9.363413811E0,1.264008522E0,9.869215604E0
2.828226105E0,-2.841775894E0,9.358628273E0,1.268794179E0,9.862527671E0
2.830732146E0,-2.851347208E0,9.356235504E0,1.264008522E0,9.862405450E0
2.833238240E0,-2.856132984E0,9.349057198E0,1.275972724E0,9.858522836E0
2.835744282E0,-2.863311291E0,9.341878891E0,1.283151150E0,9.854731332E0
2.838250324E0,-2.868097067E0,9.341878891E0,1.285543919E0,9.856434709E0
2.840756417E0,-2.860918522E0,9.356235504E0,1.297508121E0,9.869525061E0
2.843262459E0,-2.860918522E0,9.346664429E0,1.328614831E0,9.864593661E0
2.845768553E0,-2.841775894E0,9.363413811E0,1.352542996E0,9.878187130E0
2.848274594E0,-2.822633505E0,9.375378609E0,1.376471281E0,9.887348337E0
2.850780636E0,-2.820240498E0,9.387342453E0,1.388435364E0,9.899682195E0
2.853286730E0,-2.815454960E0,9.399306297E0,1.388435364E0,9.909666910E0
2.855792771E0,-2.796312332E0,9.408877373E0,1.410269856E0,9.916410497E0
2.858298865E0,-2.791526794E0,9.420842171E0,1.419841170E0,9.927781122E0
2.860804907E0,-2.781955481E0,9.444769859E0,1.441376567E0,9.950905506E0
2.863311001E0,-2.774776936E0,9.463912964E0,1.465304732E0,9.970564357E0
2.865817042E0,-2.755634308E0,9.466305733E0,1.462911963E0,9.967174930E0
2.868323084E0,-2.736491680E0,9.485447884E0,1.486840129E0,9.983626688E0
2.870829178E0,-2.724527597E0,9.499805450E0,1.501197100E0,9.996146605E0
2.873335219E0,-2.702992201E0,9.518947601E0,1.503589988E0,1.000886173E1
2.875841313E0,-2.681456804E0,9.504590988E0,1.508375525E0,9.990127986E0
2.878347355E0,-2.676671267E0,9.502198219E0,1.520339727E0,9.988381899E0
2.880853396E0,-2.667099953E0,9.487840652E0,1.525125384E0,9.972890747E0
2.883359490E0,-2.638386011E0,9.463912964E0,1.544267893E0,9.945425715E0
2.885865532E0,-2.616850615E0,9.456734657E0,1.541875124E0,9.932528199E0
2.888371626E0,-2.616850615E0,9.442377090E0,1.539482236E0,9.918487678E0
2.890877667E0,-2.609672308E0,9.408877373E0,1.546660781E0,9.885824323E0
2.893383761E0,-2.600100994E0,9.411270142E0,1.558624864E0,9.887458841E0
2.895889803E0,-2.602493763E0,9.411270142E0,1.551446438E0,9.886959366E0
2.898395844E0,-2.583351135E0,9.384949684E0,1.556231976E0,9.857628600E0
2.900901938E0,-2.580958366E0,9.389735222E0,1.565803289E0,9.863073231E0
2.903407980E0,-2.557030201E0,9.384949684E0,1.544267893E0,9.848880512E0
2.905914074E0,-2.547458887E0,9.396913528E0,1.539482236E0,9.857055148E0
2.908420115E0,-2.549851656E0,9.392127991E0,1.546660781E0,9.854236207E0
2.910926157E0,-2.552244425E0,9.406484604E0,1.556231976E0,9.870043676E0
2.913432251E0,-2.533101797E0,9.404091835E0,1.551446438E0,9.862075542E0
2.915938292E0,-2.533101797E0,9.389735222E0,1.561017632E0,9.849898898E0
2.918444386E0,-2.525923491E0,9.396913528E0,1.575374603E0,9.857184105E0
2.920950428E0,-2.542673111E0,9.408877373E0,1.596910000E0,9.876349605E0
2.923456521E0,-2.545065880E0,9.406484604E0,1.608874083E0,9.876628410E0
2.925962563E0,-2.552244425E0,9.406484604E0,1.630409479E0,9.882010892E0
2.928468605E0,-2.554637194E0,9.411270142E0,1.630409479E0,9.887184227E0
2.930974699E0,-2.554637194E0,9.408877373E0,1.628016710E0,9.884512280E0
2.933480740E0,-2.571387053E0,9.418449402E0,1.642373681E0,9.900333925E0
2.935986834E0,-2.592922449E0,9.408877373E0,1.656730533E0,9.899241198E0
2.938492876E0,-2.595315218E0,9.406484604E0,1.668694735E0,9.899603820E0
2.940998969E0,-2.607279301E0,9.408877373E0,1.659123421E0,9.903412003E0
2.943505011E0,-2.614457846E0,9.416056633E0,1.668694735E0,9.913730603E0
2.946011053E0,-2.614457846E0,9.420842171E0,1.678265929E0,9.919890804E0
2.948517146E0,-2.602493763E0,9.428020477E0,1.690230131E0,9.925594280E0
2.951023188E0,-2.604886532E0,9.428020477E0,1.695015788E0,9.927037951E0
2.953529282E0,-2.631207705E0,9.449555397E0,1.687837243E0,9.953197765E0
2.956035324E0,-2.638386011E0,9.456734657E0,1.687837243E0,9.961912752E0
2.958541365E0,-2.650350094E0,9.442377090E0,1.687837243E0,9.951463978E0
2.961047459E0,-2.659921408E0,9.456734657E0,1.671087503E0,9.964815388E0
2.963553501E0,-2.652743101E0,9.449555397E0,1.673480392E0,9.956489330E0
2.966059594E0,-2.655135870E0,9.451948166E0,1.678265929E0,9.960203168E0
2.968565636E0,-2.676671267E0,9.463912964E0,1.678265929E0,9.977313977E0
2.971071730E0,-2.681456804E0,9.468698502E0,1.675873160E0,9.982735735E0
2.973577771E0,-2.679064035E0,9.456734657E0,1.663909078E0,9.968741541E0
2.976083813E0,-2.686242580E0,9.473484039E0,1.651944876E0,9.984574148E0
2.978589907E0,-2.686242580E0,9.487840652E0,1.625623941E0,9.993881761E0
2.981095949E0,-2.674278498E0,9.504590988E0,1.628016710E0,1.000697026E1
2.983602042E0,-2.681456804E0,9.504590988E0,1.620838284E0,1.000772588E1
2.986108084E0,-2.664707184E0,9.497411728E0,1.642373681E0,9.999944261E0
2.988614126E0,-2.676671267E0,9.483055115E0,1.632802367E0,9.987940075E0
2.991120219E0,-2.681456804E0,9.492626190E0,1.632802367E0,9.998310165E0
2.993626261E0,-2.679064035E0,9.483055115E0,1.642373681E0,9.990150636E0
2.996132355E0,-2.664707184E0,9.478269577E0,1.651944876E0,9.983345152E0
2.998638396E0,-2.669492722E0,9.483055115E0,1.654337764E0,9.989562510E0
3.001144490E0,-2.662314177E0,9.497411728E0,1.671087503E0,1.000406316E1
3.003650532E0,-2.647957325E0,9.475876808E0,1.661516190E0,9.978204013E0
3.006156574E0,-2.633600473E0,9.478269577E0,1.671087503E0,9.978275356E0
3.008662667E0,-2.633600473E0,9.451948166E0,1.683051586E0,9.955291971E0
3.011168709E0,-2.621636391E0,9.439984322E0,1.699801445E0,9.943621388E0
3.013674803E0,-2.616850615E0,9.444769859E0,1.687837243E0,9.944866987E0
3.016180844E0,-2.619243383E0,9.444769859E0,1.704586983E0,9.948353149E0
3.018686938E0,-2.607279301E0,9.439984322E0,1.702194214E0,9.940255253E0
3.021192980E0,-2.600100994E0,9.432806015E0,1.706979871E0,9.932378103E0
3.023699021E0,-2.602493763E0,9.432806015E0,1.706979871E0,9.933004751E0
3.026205115E0,-2.588136673E0,9.435198784E0,1.718943954E0,9.933589273E0
3.028711157E0,-2.588136673E0,9.406484604E0,1.704586983E0,9.903838691E0
3.031217251E0,-2.592922449E0,9.396913528E0,1.716551185E0,9.898069441E0
3.033723292E0,-2.592922449E0,9.380164146E0,1.723729610E0,9.883418943E0
3.036229334E0,-2.592922449E0,9.368199348E0,1.726122379E0,9.872482177E0
3.038735428E0,-2.583351135E0,9.346664429E0,1.721336842E0,9.848697353E0
3.041241469E0,-2.583351135E0,9.325128555E0,1.718943954E0,9.827842794E0
3.043747563E0,-2.585743904E0,9.322735786E0,1.716551185E0,9.825783534E0
3.046253605E0,-2.580958366E0,9.313164711E0,1.716551185E0,9.815443494E0
3.048759699E0,-2.585743904E0,9.279664993E0,1.697408557E0,9.781587281E0
3.051265740E0,-2.592922449E0,9.270093918E0,1.695015788E0,9.773994403E0
3.053771782E0,-2.592922449E0,9.260522842E0,1.697408557E0,9.765332864E0
3.056277876E0,-2.597707987E0,9.250652313E0,1.704586983E0,9.758497414E0
3.058783917E0,-2.604886532E0,9.260522842E0,1.690230131E0,9.767271628E0
3.061290011E0,-2.616850615E0,9.231510162E0,1.680658817E0,9.741319268E0
3.063796053E0,-2.609672308E0,9.219545364E0,1.685444474E0,9.728881198E0
3.066302094E0,-2.604886532E0,9.207581520E0,1.671087503E0,9.713780147E0
3.068808188E0,-2.597707987E0,9.209974289E0,1.671087503E0,9.714126138E0
3.071314230E0,-2.628814697E0,9.183652878E0,1.690230131E0,9.700877527E0
3.073820324E0,-2.631207705E0,9.181260109E0,1.709372640E0,9.702615420E0
3.076326365E0,-2.624029160E0,9.178867340E0,1.714158297E0,9.699251174E0
3.078832459E0,-2.638386011E0,9.178867340E0,1.695015788E0,9.699781694E0
3.081338501E0,-2.633600473E0,9.178867340E0,1.692622900E0,9.698063177E0
3.083844594E0,-2.631207705E0,9.183652878E0,1.687837243E0,9.701109665E0
3.086350636E0,-2.643171787E0,9.198010445E0,1.673480392E0,9.715466528E0
3.088856678E0,-2.667099953E0,9.200403214E0,1.663909078E0,9.722624896E0
3.091362771E0,-2.681456804E0,9.200403214E0,1.649552107E0,9.724127315E0
3.093868813E0,-2.698206663E0,9.202795982E0,1.630409479E0,9.727795648E0
3.096374907E0,-2.702992201E0,9.205188751E0,1.618445396E0,9.729390129E0
3.098880949E0,-2.695813894E0,9.198010445E0,1.611266971E0,9.719413045E0
3.101387042E0,-2.707777977E0,9.231510162E0,1.604088426E0,9.753252849E0
3.103893084E0,-2.726920605E0,9.231510162E0,1.620838284E0,9.761351987E0
3.106399126E0,-2.707777977E0,9.243474007E0,1.606481314E0,9.764970839E0
3.108905219E0,-2.693420887E0,9.267701149E0,1.611266971E0,9.784732082E0
3.111411261E0,-2.698206663E0,9.296415329E0,1.592124343E0,9.810123194E0
3.113917355E0,-2.667099953E0,9.320343018E0,1.584945917E0,9.823149682E0
3.116423396E0,-2.683849812E0,9.329915047E0,1.568196177E0,9.834104120E0
3.118929438E0,-2.676671267E0,9.332307816E0,1.558624864E0,9.832896303E0
3.121435532E0,-2.645564556E0,9.370592117E0,1.529910922E0,9.856350028E0
3.123941574E0,-2.635993242E0,9.365806580E0,1.517946839E0,9.847383199E0
3.126447667E0,-2.626421928E0,9.344271660E0,1.491625786E0,9.820308166E0
3.128953709E0,-2.602493763E0,9.346664429E0,1.503589988E0,9.818039141E0
3.131459803E0,-2.568994284E0,9.308379173E0,1.503589988E0,9.772739499E0
3.133965844E0,-2.549851656E0,9.289237022E0,1.496411443E0,9.748380129E0
3.136471886E0,-2.552244425E0,9.267701149E0,1.494018674E0,9.728120476E0
3.138977980E0,-2.537887573E0,9.231510162E0,1.503589988E0,9.691358835E0
3.141484021E0,-2.537887573E0,9.200403214E0,1.517946839E0,9.663977195E0
3.143990115E0,-2.520838737E0,9.212367058E0,1.517946839E0,9.670909851E0
3.146496157E0,-2.516052961E0,9.202795982E0,1.522732496E0,9.661298601E0
3.149002251E0,-2.513660192E0,9.188439369E0,1.551446438E0,9.651574569E0
3.151508292E0,-2.501696110E0,9.162117958E0,1.580160260E0,9.628073294E0
3.154014334E0,-2.494517565E0,9.152546883E0,1.592124343E0,9.619074396E0
3.156520428E0,-2.484946251E0,9.147761345E0,1.587338686E0,9.611250678E0
3.159026469E0,-2.499303341E0,9.145368576E0,1.587338686E0,9.612696172E0
3.161532563E0,-2.496910334E0,9.119047165E0,1.596910000E0,9.588623674E0
3.164038605E0,-2.525923491E0,9.111868858E0,1.608874083E0,9.591398198E0
3.166544699E0,-2.535494804E0,9.099904060E0,1.632802367E0,9.586606875E0
3.169050740E0,-2.535494804E0,9.066405296E0,1.639980793E0,9.556043946E0
3.171556782E0,-2.557030201E0,9.047262192E0,1.649552107E0,9.545280445E0
3.174062876E0,-2.566601276E0,9.023334503E0,1.651944876E0,9.525593396E0
3.176568917E0,-2.588136673E0,9.018548965E0,1.666301847E0,9.529388161E0
3.179075011E0,-2.604886532E0,9.001798630E0,1.673480392E0,9.519367050E0
3.181581053E0,-2.626421928E0,8.992227554E0,1.695015788E0,9.520048690E0
3.184087094E0,-2.635993242E0,8.963513374E0,1.666301847E0,9.490500210E0
3.186593188E0,-2.659921408E0,8.939585686E0,1.654337764E0,9.472497430E0
3.189099230E0,-2.669492722E0,8.937192917E0,1.649552107E0,9.472097486E0
3.191605324E0,-2.676671267E0,8.941978455E0,1.644766450E0,9.477805887E0
3.194111365E0,-2.688635349E0,8.932407379E0,1.632802367E0,9.470095311E0
3.196617459E0,-2.674278498E0,8.939585686E0,1.625623941E0,9.471568556E0
3.199123501E0,-2.686242580E0,8.934800148E0,1.608874083E0,9.467577763E0
3.201629594E0,-2.705385208E0,8.920442581E0,1.601695657E0,9.458268020E0
3.204135636E0,-2.710170746E0,8.925228119E0,1.575374603E0,9.459731898E0
3.206641678E0,-2.693420887E0,8.939585686E0,1.556231976E0,9.465334979E0
3.209147771E0,-2.700599432E0,8.944371223E0,1.546660781E0,9.470331222E0
3.211653813E0,-2.695813894E0,8.951549530E0,1.517946839E0,9.471104167E0
3.214159907E0,-2.683849812E0,8.963513374E0,1.491625786E0,9.474838748E0
3.216665949E0,-2.681456804E0,8.953942299E0,1.482054472E0,9.463602842E0
3.219172042E0,-2.652743101E0,8.937192917E0,1.458126307E0,9.435920491E0
3.221678084E0,-2.655135870E0,8.951549530E0,1.441376567E0,9.447621493E0
3.224184126E0,-2.640778780E0,8.932407379E0,1.412662625E0,9.421105553E0
3.226690219E0,-2.624029160E0,8.915657043E0,1.417448282E0,9.401256787E0
3.229196261E0,-2.609672308E0,8.906085968E0,1.412662625E0,9.387458257E0
3.231702355E0,-2.583351135E0,8.886942863E0,1.419841170E0,9.363087391E0
3.234208396E0,-2.580958366E0,8.874979019E0,1.405484200E0,9.348902851E0
3.236714438E0,-2.564208508E0,8.858229637E0,1.436590910E0,9.333123326E0
3.239220532E0,-2.549851656E0,8.841479301E0,1.446162224E0,9.314767033E0
3.241726574E0,-2.535494804E0,8.829515457E0,1.474876046E0,9.303995726E0
3.244232667E0,-2.508874655E0,8.817551613E0,1.482054472E0,9.286557701E0
3.246738709E0,-2.499303341E0,8.807980537E0,1.510768414E0,9.279518282E0
3.249244803E0,-2.496910334E0,8.807980537E0,1.527518153E0,9.281615919E0
3.251750844E0,-2.482553482E0,8.796015739E0,1.563410521E0,9.272390044E0
3.254256886E0,-2.480160713E0,8.781659126E0,1.596910000E0,9.263846702E0
3.256762980E0,-2.475374937E0,8.793622971E0,1.639980793E0,9.281423545E0
3.259269021E0,-2.496910334E0,8.793622971E0,1.680658817E0,9.294459652E0
3.261775115E0,-2.487339020E0,8.803194046E0,1.714158297E0,9.307062881E0
3.264281157E0,-2.506481647E0,8.822337151E0,1.752443433E0,9.337405477E0
3.266787251E0,-2.489732027E0,8.841479301E0,1.781157374E0,9.356443950E0
3.269293292E0,-2.496910334E0,8.874979019E0,1.802692771E0,9.394121302E0
3.271799386E0,-2.518445730E0,8.867800713E0,1.795514345E0,9.391716038E0
3.274305428E0,-2.525923491E0,8.867800713E0,1.814656854E0,9.397401686E0
3.276811469E0,-2.537887573E0,8.874979019E0,1.790728688E0,9.402809961E0
3.279317563E0,-2.568994284E0,8.882157326E0,1.769193292E0,9.413952161E0
3.281823605E0,-2.580958366E0,8.884550095E0,1.759621978E0,9.417687932E0
3.284329699E0,-2.604886532E0,8.886942863E0,1.745265007E0,9.423859997E0
3.286835740E0,-2.628814697E0,8.898907661E0,1.711765528E0,9.435643354E0
3.289341782E0,-2.614457846E0,8.906085968E0,1.702194214E0,9.436695515E0
3.291847876E0,-2.650350094E0,8.910871506E0,1.675873160E0,9.446509274E0
3.294353917E0,-2.683849812E0,8.920442581E0,1.654337764E0,9.461193323E0
3.296860011E0,-2.705385208E0,8.953942299E0,1.649552107E0,9.498063696E0
3.299366053E0,-2.714956284E0,8.975478172E0,1.639980793E0,9.519439744E0
3.301872146E0,-2.736491680E0,8.997013092E0,1.632802367E0,9.544667352E0
3.304378188E0,-2.746062994E0,9.011369705E0,1.620838284E0,9.558910120E0
3.306884230E0,-2.762812853E0,9.064012527E0,1.606481314E0,9.610943771E0
3.309390324E0,-2.791526794E0,9.092725754E0,1.587338686E0,9.643128516E0
3.311896365E0,-2.805883646E0,9.123832703E0,1.580160260E0,9.675443797E0
3.314402459E0,-2.810669184E0,9.142974854E0,1.577767372E0,9.694493298E0
3.316908501E0,-2.851347208E0,9.181260109E0,1.575374603E0,9.742049232E0
3.319414594E0,-2.856132984E0,9.243474007E0,1.575374603E0,9.802097351E0
3.321920636E0,-2.872882605E0,9.270093918E0,1.575374603E0,9.832085275E0
3.324426678E0,-2.892025232E0,9.320343018E0,1.589731574E0,9.887358110E0
3.326932771E0,-2.923131943E0,9.353842735E0,1.592124343E0,9.928440673E0
3.329438813E0,-2.944667339E0,9.358628273E0,1.589731574E0,9.938925262E0
3.331944907E0,-2.944667339E0,9.384949684E0,1.589731574E0,9.963713805E0
3.334450949E0,-2.944667339E0,9.399306297E0,1.601695657E0,9.979150945E0
3.336957042E0,-2.939881802E0,9.408877373E0,1.620838284E0,9.989844602E0
3.339463084E0,-2.951845884E0,9.413662910E0,1.632802367E0,9.999824353E0
3.341969126E0,-2.968595505E0,9.411270142E0,1.656730533E0,1.000646396E1
3.344475219E0,-2.944667339E0,9.399306297E0,1.685444474E0,9.992934888E0
3.346981261E0,-2.939881802E0,9.399306297E0,1.718943954E0,9.997231226E0
3.349487355E0,-2.923131943E0,9.404091835E0,1.750050664E0,1.000221580E1
3.351993396E0,-2.920739174E0,9.389735222E0,1.766800404E0,9.990967347E0
3.354499490E0,-2.913560629E0,9.382556915E0,1.790728688E0,9.986386686E0
3.357005532E0,-2.915953398E0,9.365806580E0,1.821835399E0,9.976983578E0
3.359511574E0,-2.913560629E0,9.358628273E0,1.850549221E0,9.974832886E0
3.362017667E0,-2.915953398E0,9.337093353E0,1.876870275E0,9.960257955E0
3.364523709E0,-2.927917719E0,9.332307816E0,1.907976985E0,9.965191795E0
3.367029803E0,-2.942274570E0,9.320343018E0,1.927119493E0,9.961905599E0
3.369535844E0,-2.954238653E0,9.298808098E0,1.941476464E0,9.948099764E0
3.372041938E0,-2.942274570E0,9.308379173E0,1.968096614E0,9.958730178E0
3.374547980E0,-2.925524712E0,9.301200867E0,1.980060697E0,9.949455903E0
3.377054074E0,-2.944667339E0,9.282057762E0,2.001596212E0,9.941531544E0
3.379560115E0,-2.942274570E0,9.243474007E0,2.032702923E0,9.911138811E0
3.382066157E0,-2.949453115E0,9.236295700E0,2.056631088E0,9.911516704E0
3.384572251E0,-2.951845884E0,9.217152596E0,2.090130568E0,9.901411106E0
3.387078292E0,-2.956631422E0,9.207581520E0,2.121237278E0,9.900549197E0
3.389584386E0,-2.947060108E0,9.188439369E0,2.152343988E0,9.886615496E0
3.392090428E0,-2.956631422E0,9.176474571E0,2.178664923E0,9.884125443E0
3.394596521E0,-2.939881802E0,9.193224907E0,2.190629244E0,9.897330230E0
3.397102563E0,-2.927917719E0,9.188439369E0,2.185843468E0,9.888277498E0
3.399608605E0,-2.915953398E0,9.186046600E0,2.176272154E0,9.880404691E0
3.402114699E0,-2.911167860E0,9.166903496E0,2.164308071E0,9.858562138E0
3.404620740E0,-2.913560629E0,9.157332420E0,2.164308071E0,9.850370654E0
3.407126834E0,-2.923131943E0,9.162117958E0,2.161915302E0,9.857128568E0
3.409632876E0,-2.932703257E0,9.164510727E0,2.152343988E0,9.860100907E0
3.412138969E0,-2.913560629E0,9.171689034E0,2.166700840E0,9.864243904E0
3.414645011E0,-2.913560629E0,9.169296265E0,2.183450699E0,9.865712670E0
3.417151053E0,-2.920739174E0,9.164510727E0,2.181057930E0,9.862859011E0
3.419657146E0,-2.918346405E0,9.159725189E0,2.188236237E0,9.859294554E0
3.422163188E0,-2.915953398E0,9.169296265E0,2.195414782E0,9.869074134E0
3.424669282E0,-2.911167860E0,9.181260109E0,2.188236237E0,9.877186509E0
3.427175324E0,-2.906382322E0,9.190832138E0,2.216950178E0,9.891072828E0
3.429681417E0,-2.908775091E0,9.198010445E0,2.209771633E0,9.896840877E0
3.432187459E0,-2.920739174E0,9.217152596E0,2.216950178E0,9.919752385E0
3.434693501E0,-2.932703257E0,9.209974289E0,2.226521492E0,9.918758629E0
3.437199594E0,-2.903989315E0,9.195617676E0,2.226521492E0,9.896966017E0
3.439705636E0,-2.906382322E0,9.200403214E0,2.240878344E0,9.905352757E0
3.442211730E0,-2.911167860E0,9.188439369E0,2.240878344E0,9.895648140E0
3.444717771E0,-2.903989315E0,9.178867340E0,2.267199516E0,9.890649788E0
3.447223865E0,-2.899203777E0,9.188439369E0,2.281556368E0,9.901429192E0
3.449729907E0,-2.920739174E0,9.188439369E0,2.293520451E0,9.910518222E0
3.452235949E0,-2.920739174E0,9.171689034E0,2.279163599E0,9.891672445E0
3.454742042E0,-2.920739174E0,9.162117958E0,2.310270309E0,9.890018792E0
3.457248084E0,-2.930310488E0,9.150154114E0,2.322234392E0,9.884574469E0
3.459754178E0,-2.920739174E0,9.140582085E0,2.338984251E0,9.876831754E0
3.462260219E0,-2.918346405E0,9.142974854E0,2.353341103E0,9.881748289E0
3.464766313E0,-2.918346405E0,9.126225471E0,2.377269268E0,9.871987959E0
3.467272355E0,-2.913560629E0,9.104690552E0,2.377269268E0,9.850666716E0
3.469778449E0,-2.923131943E0,9.092725754E0,2.389233351E0,9.845343975E0
3.472284490E0,-2.937488794E0,9.083154678E0,2.413161755E0,9.846618149E0
3.474790532E0,-2.932703257E0,9.080761909E0,2.408375978E0,9.841811830E0
3.477296626E0,-2.935096025E0,9.075976372E0,2.413161755E0,9.839282770E0
3.479802667E0,-2.947060108E0,9.078369141E0,2.415554523E0,9.845651486E0
3.482308761E0,-2.968595505E0,9.068798065E0,2.420340061E0,9.844475793E0
3.484814803E0,-2.980559587E0,9.107083321E0,2.427518606E0,9.885117533E0
3.487320896E0,-2.987738132E0,9.099904060E0,2.429911375E0,9.881260160E0
3.489826938E0,-3.002095222E0,9.133403778E0,2.434697151E0,9.917630287E0
3.492332980E0,-3.006880760E0,9.138189316E0,2.465803623E0,9.931164251E0
3.494839074E0,-3.018844843E0,9.147761345E0,2.472982168E0,9.945380969E0
3.497345115E0,-3.028416157E0,9.171689034E0,2.477767944E0,9.971485252E0
3.499851209E0,-3.049951553E0,9.207581520E0,2.484946251E0,1.001282776E1
3.502357251E0,-3.076272726E0,9.245866776E0,2.477767944E0,1.005429462E1
3.504863344E0,-3.093321562E0,9.294022560E0,2.475374937E0,1.010321606E1
3.507369386E0,-3.112463951E0,9.320343018E0,2.470589399E0,1.013212899E1
3.509875428E0,-3.110071182E0,9.368199348E0,2.472982168E0,1.017601801E1
3.512381521E0,-3.119642496E0,9.413662910E0,2.461018085E0,1.021791704E1
3.514887563E0,-3.126821041E0,9.468698502E0,2.453839540E0,1.026910851E1
3.517393657E0,-3.122035265E0,9.511769295E0,2.446661234E0,1.030567856E1
3.519899699E0,-3.122035265E0,9.564411163E0,2.427518606E0,1.034977834E1
3.522405792E0,-3.090928555E0,9.629017830E0,2.410768747E0,1.039632770E1
3.524911834E0,-3.083451033E0,9.674481392E0,2.382055044E0,1.042964269E1
3.527417876E0,-3.061915636E0,9.715159416E0,2.372483730E0,1.045888756E1
3.529923969E0,-3.021237612E0,9.772586823E0,2.346162558E0,1.049456091E1
3.532430011E0,-2.992523909E0,9.827920914E0,2.327019930E0,1.053367223E1
3.534936105E0,-2.947060108E0,9.844670296E0,2.286342144E0,1.052758552E1
3.537442146E0,-2.923131943E0,9.863813400E0,2.255235434E0,1.053212239E1
3.539948240E0,-2.872882605E0,9.868598938E0,2.212164640E0,1.051362791E1
3.542454282E0,-2.834597588E0,9.870991707E0,2.195414782E0,1.050196490E1
3.544960376E0,-2.784348249E0,9.854242325E0,2.154736757E0,1.046430014E1
3.547466417E0,-2.746062994E0,9.842277527E0,2.126022816E0,1.043701403E1
3.549972459E0,-2.724527597E0,9.815657616E0,2.104487419E0,1.040187735E1
3.552478553E0,-2.662314177E0,9.794121742E0,2.097309113E0,1.036394920E1
3.554984594E0,-2.628814697E0,9.760622978E0,2.087737799E0,1.032177682E1
3.557490688E0,-2.573779821E0,9.712766647E0,2.092523336E0,1.026356821E1
3.559996730E0,-2.533101797E0,9.681659698E0,2.102094650E0,1.022594451E1
3.562502824E0,-2.504088879E0,9.636196136E0,2.109273195E0,1.017721821E1
3.565008865E0,-2.477767944E0,9.585947037E0,2.128415823E0,1.012718463E1
3.567514959E0,-2.432304144E0,9.545269012E0,2.145165443E0,1.008117050E1
3.570021001E0,-2.398804665E0,9.506983757E0,2.173879385E0,1.004304513E1
3.572527042E0,-2.367697954E0,9.478269577E0,2.190629244E0,1.001211487E1
3.575033136E0,-2.343769789E0,9.444769859E0,2.216950178E0,9.980571257E0
3.577539178E0,-2.310270309E0,9.430413246E0,2.243271112E0,9.965054349E0
3.580045271E0,-2.288734913E0,9.392127991E0,2.250449657E0,9.925467211E0
3.582551313E0,-2.276770830E0,9.358628273E0,2.264806747E0,9.894289169E0
3.585057407E0,-2.269592285E0,9.308379173E0,2.279163599E0,9.848429250E0
3.587563449E0,-2.286342144E0,9.267701149E0,2.281556368E0,9.814435513E0
3.590069490E0,-2.269592285E0,9.224330902E0,2.276770830E0,9.768470461E0
3.592575584E0,-2.269592285E0,9.181260109E0,2.279163599E0,9.728369495E0
3.595081626E0,-2.276770830E0,9.138189316E0,2.288734913E0,9.691671522E0
3.597587719E0,-2.288734913E0,9.107083321E0,2.279163599E0,9.662911612E0
3.600093761E0,-2.305484533E0,9.059226990E0,2.279163599E0,9.621820997E0
3.602599855E0,-2.319841623E0,9.020941734E0,2.260020971E0,9.584714379E0
3.605105896E0,-2.350948334E0,8.989834785E0,2.236092806E0,9.557415894E0
3.607611938E0,-2.353341103E0,8.989834785E0,2.224128723E0,9.555212839E0
3.610118032E0,-2.379662037E0,8.975478172E0,2.188236237E0,9.539935936E0
3.612624074E0,-2.403590441E0,8.965906143E0,2.137987137E0,9.525529328E0
3.615130167E0,-2.427518606E0,8.958727837E0,2.111665964E0,9.518969701E0
3.617636209E0,-2.449054003E0,8.968298912E0,2.054238319E0,9.520931990E0
3.620142303E0,-2.492124796E0,8.958727837E0,2.006381750E0,9.512889055E0
3.622648344E0,-2.511267424E0,8.963513374E0,1.958226204E0,9.512396436E0
3.625154438E0,-2.528316259E0,8.953942299E0,1.917548299E0,9.499603006E0
3.627660480E0,-2.566601276E0,8.975478172E0,1.876870275E0,9.522042457E0
3.630166521E0,-2.590529680E0,8.956335068E0,1.850549221E0,9.505330835E0
3.632672615E0,-2.621636391E0,8.951549530E0,1.826620936E0,9.504723057E0
3.635178657E0,-2.645564556E0,8.946763992E0,1.819442511E0,9.505470467E0
3.637684751E0,-2.643171787E0,8.930013657E0,1.793121457E0,9.484027919E0
3.640190792E0,-2.643171787E0,8.941978455E0,1.766800404E0,9.490359290E0
3.642696886E0,-2.647957325E0,8.963513374E0,1.759621978E0,9.510652949E0
3.645202928E0,-2.628814697E0,8.985049248E0,1.745265007E0,9.523010377E0
3.647708969E0,-2.602493763E0,9.025727272E0,1.714158297E0,9.548563517E0
3.650215063E0,-2.573779821E0,9.078369141E0,1.690230131E0,9.586344805E0
3.652721105E0,-2.549851656E0,9.142974854E0,1.666301847E0,9.637027264E0
3.655227199E0,-2.518445730E0,9.183652878E0,1.623231053E0,9.660068743E0
3.657733240E0,-2.470589399E0,9.229117393E0,1.611266971E0,9.688993812E0
3.660239334E0,-2.422732830E0,9.274879456E0,1.556231976E0,9.711584899E0
3.662745376E0,-2.382055044E0,9.327521324E0,1.508375525E0,9.744333585E0
3.665251469E0,-2.322234392E0,9.370592117E0,1.462911963E0,9.764265493E0
3.667757511E0,-2.269592285E0,9.425627708E0,1.474876046E0,9.806567503E0
3.670263553E0,-2.219342947E0,9.478269577E0,1.453340650E0,9.842523880E0
3.672769646E0,-2.152343988E0,9.516554832E0,1.419841170E0,9.859683031E0
3.675275688E0,-2.121237278E0,9.535696983E0,1.405484200E0,9.869374366E0
3.677781782E0,-2.063809633E0,9.557232857E0,1.386042476E0,9.875278418E0
3.680287824E0,-2.015953064E0,9.588339806E0,1.350150228E0,9.890562806E0
3.682793917E0,-1.999203324E0,9.600303650E0,1.287936807E0,9.890471441E0
3.685299959E0,-1.946262121E0,9.585947037E0,1.218544960E0,9.857137955E0
3.687806001E0,-1.891227245E0,9.581160545E0,1.175474167E0,9.836519578E0
3.690312094E0,-1.864906192E0,9.573982239E0,1.132403374E0,9.819437276E0
3.692818136E0,-1.848156333E0,9.559625626E0,1.096511006E0,9.798186583E0
3.695324230E0,-1.809871197E0,9.511769295E0,1.077368379E0,9.742182070E0
3.697830271E0,-1.795514345E0,9.471091270E0,1.072582722E0,9.699271896E0
3.700336365E0,-1.771586061E0,9.425627708E0,1.084546804E0,9.651798622E0
3.702842407E0,-1.764407635E0,9.380164146E0,1.079761267E0,9.605545175E0
3.705348501E0,-1.745265007E0,9.327521324E0,1.084546804E0,9.551169864E0
3.707854542E0,-1.730908036E0,9.272486687E0,1.120439172E0,9.498970256E0
3.710360584E0,-1.733300924E0,9.245866776E0,1.156331539E0,9.477736394E0
3.712866678E0,-1.735693693E0,9.236295700E0,1.182652593E0,9.472088366E0
3.715372719E0,-1.745265007E0,9.219545364E0,1.199402332E0,9.459626453E0
3.717878813E0,-1.735693693E0,9.200403214E0,1.235294700E0,9.443834226E0
3.720384855E0,-1.745265007E0,9.205188751E0,1.266401410E0,9.454375835E0
3.722890949E0,-1.754836321E0,9.212367058E0,1.292722464E0,9.466693651E0
3.725396990E0,-1.785943031E0,9.226723671E0,1.314257860E0,9.489430749E0
3.727903084E0,-1.817049742E0,9.253045082E0,1.331007600E0,9.523239695E0
3.730409126E0,-1.855334878E0,9.270093918E0,1.350150228E0,9.549859391E0
3.732915167E0,-1.884048700E0,9.294022560E0,1.362114310E0,9.580388836E0
3.735421261E0,-1.907976985E0,9.329915047E0,1.354935765E0,9.618915837E0
3.737927303E0,-1.946262121E0,9.353842735E0,1.340578914E0,9.647769793E0
3.740433396E0,-1.980060697E0,9.375378609E0,1.323829174E0,9.673204645E0
3.742939438E0,-1.996810555E0,9.425627708E0,1.295115232E0,9.721472808E0
3.745445532E0,-2.049452543E0,9.471091270E0,1.283151150E0,9.774881199E0
3.747951574E0,-2.090130568E0,9.492626190E0,1.247258782E0,9.799706743E0
3.750457615E0,-2.126022816E0,9.526125908E0,1.187438250E0,9.832449208E0
3.752963709E0,-2.169093609E0,9.562018394E0,1.139581800E0,9.870957884E0
3.755469751E0,-2.200200319E0,9.621838570E0,1.103689432E0,9.931706262E0
3.757975844E0,-2.245664120E0,9.650552750E0,1.063011408E0,9.965248063E0
3.760481886E0,-2.274377823E0,9.698409081E0,1.012762189E0,1.001287274E1
3.762987980E0,-2.293520451E0,9.741479874E0,9.649057388E-1,1.005423837E1
3.765494021E0,-2.327019930E0,9.779765129E0,9.266205430E-1,1.009541744E1
3.768000115E0,-2.348555326E0,9.815657616E0,8.979067206E-1,1.013257534E1
3.770506157E0,-2.377269268E0,9.863813400E0,8.548358679E-1,1.018218878E1
3.773012199E0,-2.415554523E0,9.902098656E0,8.258228898E-1,1.022587135E1
3.775518292E0,-2.456232548E0,9.940383911E0,7.899305820E-1,1.026977609E1
3.778024334E0,-2.492124796E0,9.971489906E0,7.707880139E-1,1.030705637E1
3.780530428E0,-2.504088879E0,1.000977516E1,7.516453862E-1,1.034558025E1
3.783036469E0,-2.530709028E0,1.004327488E1,7.229315639E-1,1.038241246E1
3.785542563E0,-2.545065880E0,1.005763149E1,6.942176819E-1,1.039784832E1
3.788048605E0,-2.583351135E0,1.007677460E1,6.846463680E-1,1.042515372E1
3.790554699E0,-2.583351135E0,1.009591675E1,6.750751138E-1,1.044303426E1
3.793060740E0,-2.602493763E0,1.012463093E1,6.678966284E-1,1.047507571E1
3.795566782E0,-2.624029160E0,1.012941647E1,6.655037999E-1,1.048491785E1
3.798072876E0,-2.633600473E0,1.014616585E1,6.678966284E-1,1.050364788E1
3.800578917E0,-2.626421928E0,1.014855862E1,6.678966284E-1,1.050416203E1
3.803085011E0,-2.631207705E0,1.017009449E1,6.631109715E-1,1.052586301E1
3.805591053E0,-2.621636391E0,1.017009449E1,6.750751138E-1,1.052423516E1
3.808097146E0,-2.631207705E0,1.017248726E1,6.990033388E-1,1.053049651E1
3.810603188E0,-2.621636391E0,1.015573788E1,7.181459069E-1,1.051321657E1
3.813109282E0,-2.607279301E0,1.013898754E1,7.372884750E-1,1.049478766E1
3.815615324E0,-2.600100994E0,1.014855862E1,7.420741320E-1,1.050259212E1
3.818121365E0,-2.600100994E0,1.015095139E1,7.707880139E-1,1.050697166E1
3.820627459E0,-2.595315218E0,1.015573788E1,7.899305820E-1,1.051183444E1
3.823133501E0,-2.573779821E0,1.016530895E1,7.899305820E-1,1.051578998E1
3.825639594E0,-2.542673111E0,1.020359421E1,7.875377536E-1,1.054508118E1
3.828145636E0,-2.499303341E0,1.022034359E1,7.923234105E-1,1.055128981E1
3.830651730E0,-2.475374937E0,1.025384331E1,7.779664397E-1,1.057705136E1
3.833157771E0,-2.487339020E0,1.029452133E1,7.731808424E-1,1.061893749E1
3.835663813E0,-2.470589399E0,1.032562828E1,7.899305820E-1,1.064642671E1
3.838169907E0,-2.456232548E0,1.035434151E1,7.851449251E-1,1.067061005E1
3.840675949E0,-2.432304144E0,1.036151981E1,7.779664397E-1,1.067157102E1
3.843182042E0,-2.420340061E0,1.037827015E1,7.971090674E-1,1.068652985E1
3.845688084E0,-2.420340061E0,1.039053345E1,7.923234105E-1,1.069808430E1
3.848194178E0,-2.432304144E0,1.040967560E1,8.090731502E-1,1.072063659E1
3.850700219E0,-2.463410854E0,1.043360424E1,7.995018363E-1,1.075024156E1
3.853206313E0,-2.472982168E0,1.044556808E1,8.090731502E-1,1.076476348E1
3.855712355E0,-2.470589399E0,1.045753193E1,8.018946648E-1,1.077528752E1
3.858218449E0,-2.489732027E0,1.046471119E1,8.090731502E-1,1.078719357E1
3.860724490E0,-2.494517565E0,1.048385334E1,7.995018363E-1,1.080615574E1
3.863230532E0,-2.506481647E0,1.049103165E1,7.899305820E-1,1.081518310E1
3.865736626E0,-2.508874655E0,1.050538826E1,7.875377536E-1,1.082948984E1
3.868242667E0,-2.518445730E0,1.052453136E1,7.851449251E-1,1.085010516E1
3.870748761E0,-2.525923491E0,1.053888798E1,7.899305820E-1,1.086611428E1
3.873254803E0,-2.533101797E0,1.055563831E1,7.731808424E-1,1.088282654E1
3.875760896E0,-2.545065880E0,1.060828018E1,7.564310431E-1,1.093549984E1
3.878266938E0,-2.564208508E0,1.064417267E1,7.420741320E-1,1.097379839E1
3.880773032E0,-2.568994284E0,1.067527866E1,7.157530785E-1,1.100334534E1
3.883279074E0,-2.566601276E0,1.073509979E1,6.990033388E-1,1.105976561E1
3.885785115E0,-2.559422970E0,1.079970551E1,6.726822853E-1,1.111920799E1
3.888291209E0,-2.566601276E0,1.089541912E1,6.320042610E-1,1.121146865E1
3.890797251E0,-2.585743904E0,1.099382401E1,5.889334679E-1,1.130915914E1
3.893303344E0,-2.557030201E0,1.109432220E1,5.434698462E-1,1.139814670E1
3.895809386E0,-2.552244425E0,1.120917797E1,4.860421121E-1,1.150633996E1
3.898315480E0,-2.540280342E0,1.131924725E1,4.118646085E-1,1.160810126E1
3.900821521E0,-2.496910334E0,1.142692471E1,3.305086195E-1,1.170121384E1
3.903327563E0,-2.432304144E0,1.152532959E1,2.297109663E-1,1.178143000E1
3.905833657E0,-2.386840582E0,1.165214920E1,1.459621787E-1,1.189499449E1
3.908339699E0,-2.374876499E0,1.175982571E1,6.939185411E-2,1.199743115E1
3.910845792E0,-2.355733871E0,1.186511040E1,-2.392822644E-3,1.209670751E1
3.913351834E0,-2.300698996E0,1.196082306E1,-8.374879509E-2,1.218037430E1
3.915857928E0,-2.300698996E0,1.207597733E1,-1.268195957E-1,1.229384104E1
3.918363969E0,-2.315055847E0,1.216690540E1,-1.507478207E-1,1.238611301E1
3.920870063E0,-2.338984251E0,1.222911835E1,-1.722832322E-1,1.245198235E1
3.923376105E0,-2.374876499E0,1.228415298E1,-1.890329868E-1,1.251304065E1
3.925882146E0,-2.413161755E0,1.230329609E1,-1.746760458E-1,1.253893760E1
3.928388240E0,-2.487339020E0,1.230808163E1,-2.033899277E-1,1.255854674E1
3.930894282E0,-2.535494804E0,1.226261806E1,-2.344966233E-1,1.252419755E1
3.933400376E0,-2.607279301E0,1.221715450E1,-2.584248483E-1,1.249494109E1
3.935906417E0,-2.676671267E0,1.219083309E1,-3.017947674E-1,1.248487327E1
3.938412511E0,-2.736491680E0,1.212862015E1,-3.472583890E-1,1.243834401E1
3.940918553E0,-2.789133787E0,1.205653572E1,-3.640081584E-1,1.238029979E1
3.943424646E0,-2.860918522E0,1.195603752E1,-3.735794425E-1,1.229923777E1
3.945930688E0,-2.920739174E0,1.182921791E1,-3.520440459E-1,1.218954670E1
3.948436730E0,-2.994916677E0,1.169761276E1,-2.850449979E-1,1.207828303E1
3.950942824E0,-3.073879719E0,1.156122208E1,-1.986042857E-1,1.196453242E1
3.953448865E0,-3.141177893E0,1.141735363E1,-1.220339537E-1,1.184220650E1
3.955954959E0,-3.184248686E0,1.123789120E1,-2.871387079E-2,1.168034515E1
3.958461001E0,-3.177070379E0,1.105842972E1,7.178467698E-3,1.150576793E1
3.960967094E0,-3.138785124E0,1.089302635E1,3.349951655E-2,1.133627440E1
3.963473136E0,-3.054737091E0,1.074706364E1,8.374879509E-2,1.117308415E1
3.965979230E0,-2.954238653E0,1.060588741E1,1.698904037E-1,1.101095984E1
3.968485271E0,-2.848954439E0,1.049820995E1,3.017947674E-1,1.088209693E1
3.970991313E0,-2.717349291E0,1.040249729E1,3.831507266E-1,1.075838006E1
3.973497407E0,-2.585743904E0,1.030169964E1,4.094717801E-1,1.062914644E1
3.976003449E0,-2.482553482E0,1.018205833E1,3.879363835E-1,1.048751059E1
3.978509542E0,-2.398804665E0,1.011027431E1,3.807578981E-1,1.039792706E1
3.981015584E0,-2.324627161E0,1.004327488E1,3.544368446E-1,1.031488668E1
3.983521678E0,-2.281556368E0,9.961918831E0,3.233301640E-1,1.022496301E1
3.986027719E0,-2.271985054E0,9.899705887E0,2.751746178E-1,1.016079789E1
3.988533813E0,-2.231307030E0,9.866206169E0,2.536391914E-1,1.011855168E1
3.991039855E0,-2.226521492E0,9.835099220E0,2.536391914E-1,1.008716548E1
3.993545949E0,-2.214557409E0,9.810872078E0,2.775674164E-1,1.006153662E1
3.996051990E0,-2.207378864E0,9.794121742E0,3.400799036E-1,1.004554610E1
3.998558032E0,-2.228914261E0,9.789336205E0,4.214358926E-1,1.004871983E1
4.001064126E0,-2.212164640E0,9.774979591E0,4.860421121E-1,1.003394914E1
4.003570167E0,-2.183450699E0,9.767801285E0,5.315057039E-1,1.002296848E1
4.006076261E0,-2.149951220E0,9.770194054E0,5.578267574E-1,1.001948865E1
4.008582303E0,-2.104487419E0,9.758230209E0,5.410770178E-1,9.997234040E0
4.011088396E0,-2.018345833E0,9.731908798E0,4.956133962E-1,9.951351737E0
4.013594438E0,-1.951047778E0,9.717552185E0,4.334000051E-1,9.920949726E0
4.016100532E0,-1.879263043E0,9.660123825E0,3.472583890E-1,9.847345342E0
4.018606574E0,-1.790728688E0,9.619445801E0,2.464607358E-1,9.787808214E0
4.021112667E0,-1.711765528E0,9.547661781E0,1.244267747E-1,9.700694240E0
4.023618709E0,-1.635195136E0,9.483055115E0,3.110669367E-2,9.623053833E0
4.026124751E0,-1.537089467E0,9.396913528E0,-4.546362907E-2,9.521906050E0
4.028630844E0,-1.458126307E0,9.298808098E0,-1.052841991E-1,9.413025503E0
4.031136886E0,-1.388435364E0,9.200403214E0,-1.268195957E-1,9.305442239E0
4.033642980E0,-1.321436286E0,9.099904060E0,-1.459621787E-1,9.196507637E0
4.036149021E0,-1.252044439E0,9.020941734E0,-1.411765367E-1,9.108508982E0
4.038655115E0,-1.187438250E0,8.939585686E0,-9.571290761E-2,9.018612021E0
4.041161157E0,-1.094118118E0,8.853444099E0,-5.024927482E-2,8.920935594E0
4.043667199E0,-1.019940615E0,8.776873589E0,-7.178467698E-3,8.835940266E0
4.046173292E0,-9.314061999E-1,8.690432549E0,3.828516230E-2,8.740286102E0
4.048679334E0,-8.691928387E-1,8.642576218E0,5.982056633E-2,8.686380050E0
4.051185428E0,-7.995018363E-1,8.582756042E0,9.092725813E-2,8.620392812E0
4.053691469E0,-7.564310431E-1,8.527720451E0,1.363908947E-1,8.562289793E0
4.056197563E0,-6.870391965E-1,8.487042427E0,1.435693651E-1,8.516015746E0
4.058703605E0,-6.320042610E-1,8.446364403E0,1.698904037E-1,8.471680103E0
4.061209699E0,-5.721837282E-1,8.403293610E0,1.938186288E-1,8.424980912E0
4.063715740E0,-5.123631358E-1,8.388936996E0,2.057827413E-1,8.407087870E0
4.066221782E0,-4.573282301E-1,8.353044510E0,2.512463629E-1,8.369326522E0
4.068727876E0,-4.190430641E-1,8.324331284E0,3.017947674E-1,8.340333836E0
4.071233917E0,-3.831507266E-1,8.305188179E0,3.592225015E-1,8.321778414E0
4.073740011E0,-3.640081584E-1,8.274081230E0,4.262215197E-1,8.293044491E0
4.076246053E0,-3.137588799E-1,8.247760773E0,5.219344497E-1,8.270212692E0
4.078752146E0,-2.799602449E-1,8.228617668E0,5.985047817E-1,8.255103539E0
4.081258188E0,-2.608176768E-1,8.207082748E0,6.822535396E-1,8.239520799E0
4.083764282E0,-2.608176768E-1,8.168797493E0,7.731808424E-1,8.209451075E0
4.086270324E0,-2.536391914E-1,8.152048111E0,8.500502706E-1,8.200171139E0
4.088776417E0,-2.536391914E-1,8.113463402E0,9.194421172E-1,8.169332593E0
4.091282459E0,-2.416750938E-1,8.084749222E0,9.816554785E-1,8.147712827E0
4.093788501E0,-2.321037948E-1,8.058428764E0,1.022333503E0,8.126334482E0
4.096294594E0,-2.249253243E-1,8.036892891E0,1.051047325E0,8.108448632E0
4.098800636E0,-2.201396823E-1,8.044071198E0,1.084546804E0,8.119838957E0
4.101306730E0,-2.177468538E-1,8.044071198E0,1.106082320E0,8.122678944E0
4.103812771E0,-2.225325108E-1,8.056035995E0,1.110867858E0,8.135309710E0
4.106318865E0,-2.344966233E-1,8.101499557E0,1.103689432E0,8.179695233E0
4.108824907E0,-2.297109663E-1,8.149654388E0,1.077368379E0,8.223767774E0
4.111331001E0,-2.201396823E-1,8.211868286E0,1.086939692E0,8.286415397E0
4.113837042E0,-2.344966233E-1,8.259724617E0,1.070189953E0,8.332067328E0
4.116343084E0,-2.584248483E-1,8.300402641E0,1.039083242E0,8.369179255E0
4.118849178E0,-2.608176768E-1,8.343473434E0,1.003190875E0,8.407613618E0
4.121355219E0,-2.874378264E-1,8.405686378E0,9.744769931E-1,8.466864202E0
4.123861313E0,-2.994019389E-1,8.417651176E0,9.457631707E-1,8.475904720E0
4.126367355E0,-3.089732230E-1,8.446364403E0,9.242277741E-1,8.502395724E0
4.128873449E0,-3.185445070E-1,8.458329201E0,9.122636318E-1,8.513344138E0
4.131379490E0,-3.257229924E-1,8.453543663E0,9.098708034E-1,8.508605104E0
4.133885584E0,-3.281157911E-1,8.463114738E0,8.835497499E-1,8.515434881E0
4.136391626E0,-3.544368446E-1,8.463114738E0,8.763712645E-1,8.515747950E0
4.138897719E0,-3.520440459E-1,8.470293045E0,8.548358679E-1,8.520595263E0
4.141403761E0,-3.759722710E-1,8.487042427E0,8.330013752E-1,8.536107755E0
4.143909803E0,-4.166502357E-1,8.484649658E0,7.995018363E-1,8.532413517E0
4.146415896E0,-4.597210586E-1,8.477471352E0,7.683951855E-1,8.524628739E0
4.148921938E0,-4.836492836E-1,8.489435196E0,7.516453862E-1,8.536357383E0
4.151428032E0,-5.362913609E-1,8.482256889E0,7.540382147E-1,8.532576633E0
4.153934074E0,-5.673980713E-1,8.494221687E0,7.636095285E-1,8.547329534E0
4.156440167E0,-5.841478109E-1,8.479864120E0,8.042874932E-1,8.537927298E0
4.158946209E0,-6.152545214E-1,8.455936432E0,8.162516356E-1,8.517491755E0
4.161452303E0,-6.248258352E-1,8.439186096E0,8.548358679E-1,8.505352059E0
4.163958344E0,-6.559324861E-1,8.403293610E0,8.931210637E-1,8.476040122E0
4.166464438E0,-6.678966284E-1,8.348258972E0,9.098708034E-1,8.424213830E0
4.168970480E0,-7.253243923E-1,8.298009872E0,9.385846853E-1,8.382362706E0
4.171476521E0,-7.707880139E-1,8.235795975E0,9.601200819E-1,8.327321302E0
4.173982615E0,-8.210372925E-1,8.178368568E0,9.744769931E-1,8.277041747E0
4.176488657E0,-8.907282352E-1,8.106285095E0,9.792626500E-1,8.213659974E0
4.178994751E0,-9.625129104E-1,8.032107353E0,9.720842242E-1,8.147768245E0
4.181500792E0,-1.036690354E0,7.969893932E0,9.864411354E-1,8.097345386E0
4.184006886E0,-1.118046403E0,7.890930653E0,9.888339639E-1,8.030853437E0
4.186512928E0,-1.197009563E0,7.831110477E0,1.000798106E0,7.985030999E0
4.189019021E0,-1.278365493E0,7.773682594E0,1.019940615E0,7.943842790E0
4.191525063E0,-1.357328653E0,7.749754429E0,1.055832982E0,7.938250315E0
4.194031105E0,-1.427019596E0,7.718647480E0,1.082154036E0,7.923696183E0
4.196537199E0,-1.491625786E0,7.697112083E0,1.113260746E0,7.918953933E0
4.199043240E0,-1.541875124E0,7.692326546E0,1.158724308E0,7.930441892E0
4.201549334E0,-1.587338686E0,7.668398380E0,1.201795220E0,7.922644102E0
4.204055376E0,-1.637588024E0,7.651648521E0,1.230509043E0,7.921084025E0
4.206561469E0,-1.692622900E0,7.632505894E0,1.259222865E0,7.918696908E0
4.209067511E0,-1.754836321E0,7.630113125E0,1.273579836E0,7.932218001E0
4.211573605E0,-1.802692771E0,7.637291908E0,1.273579836E0,7.949838647E0
4.214079646E0,-1.829013824E0,7.630113125E0,1.271187067E0,7.948574364E0
